NO_OF_FRAMES	1200
NO_OF_CAMERAS	12
NO_OF_MARKERS	8
FREQUENCY	240
NO_OF_ANALOG	0
ANALOG_FREQUENCY	0
DESCRIPTION	--
TIME_STAMP	2020-02-08, 11:27:47	226745.10205250
DATA_INCLUDED	3D
MARKER_NAMES	ASISL	ASISR	medialKnee	lateralKnee	medialMalleolus	lateralMalleolus	toe	sacral
ASISL X	ASISL Y	ASISL Z	ASISR X	ASISR Y	ASISR Z	medialKnee X	medialKnee Y	medialKnee Z	lateralKnee X	lateralKnee Y	lateralKnee Z	medialMalleolus X	medialMalleolus Y	medialMalleolus Z	lateralMalleolus X	lateralMalleolus Y	lateralMalleolus Z	toe X	toe Y	toe Z	sacral X	sacral Y	sacral Z	
0.000	0.000	0.000	0.000	0.000	0.000	-3978.555	616.343	509.443	-3979.270	516.674	518.984	0.000	0.000	0.000	0.000	0.000	0.000	-3822.164	549.583	109.940	0.000	0.000	0.000
0.000	0.000	0.000	0.000	0.000	0.000	-3973.854	616.885	507.498	-3988.098	513.016	516.577	0.000	0.000	0.000	0.000	0.000	0.000	-3852.022	545.136	103.387	0.000	0.000	0.000
0.000	0.000	0.000	0.000	0.000	0.000	-3971.688	616.354	510.656	-3982.416	512.922	515.700	0.000	0.000	0.000	0.000	0.000	0.000	-3848.782	545.415	101.150	0.000	0.000	0.000
0.000	0.000	0.000	0.000	0.000	0.000	-3969.715	617.129	507.536	-3966.042	515.914	516.534	0.000	0.000	0.000	0.000	0.000	0.000	-3838.827	544.055	97.186	0.000	0.000	0.000
0.000	0.000	0.000	0.000	0.000	0.000	-3958.273	616.722	504.975	-3958.447	516.582	515.680	0.000	0.000	0.000	0.000	0.000	0.000	-3836.207	543.819	94.162	0.000	0.000	0.000
0.000	0.000	0.000	0.000	0.000	0.000	-3955.818	616.205	507.561	-3953.314	516.934	514.656	0.000	0.000	0.000	0.000	0.000	0.000	-3835.171	544.520	91.881	0.000	0.000	0.000
0.000	0.000	0.000	0.000	0.000	0.000	-3948.714	616.026	506.081	-3948.070	517.259	512.997	0.000	0.000	0.000	0.000	0.000	0.000	-3833.349	545.062	89.455	0.000	0.000	0.000
0.000	0.000	0.000	0.000	0.000	0.000	-3946.021	616.228	504.117	-3942.679	516.692	512.752	0.000	0.000	0.000	0.000	0.000	0.000	-3831.660	545.436	86.732	0.000	0.000	0.000
0.000	0.000	0.000	0.000	0.000	0.000	-3942.847	616.636	503.320	-3940.278	516.767	509.862	0.000	0.000	0.000	0.000	0.000	0.000	-3831.023	545.632	83.559	0.000	0.000	0.000
0.000	0.000	0.000	0.000	0.000	0.000	-3938.218	617.344	500.103	-3932.017	517.362	509.437	0.000	0.000	0.000	0.000	0.000	0.000	-3830.893	545.960	79.848	0.000	0.000	0.000
0.000	0.000	0.000	0.000	0.000	0.000	-3928.861	617.005	496.685	-3928.607	517.703	506.779	0.000	0.000	0.000	0.000	0.000	0.000	-3830.524	546.478	76.832	0.000	0.000	0.000
0.000	0.000	0.000	0.000	0.000	0.000	-3925.554	616.946	497.625	-3923.335	518.321	504.667	0.000	0.000	0.000	0.000	0.000	0.000	-3830.183	547.161	73.928	0.000	0.000	0.000
0.000	0.000	0.000	0.000	0.000	0.000	-3920.436	616.981	497.222	-3918.653	518.279	502.564	0.000	0.000	0.000	0.000	0.000	0.000	-3830.136	547.980	70.550	0.000	0.000	0.000
0.000	0.000	0.000	0.000	0.000	0.000	-3914.680	617.983	491.150	-3915.857	518.104	500.561	0.000	0.000	0.000	0.000	0.000	0.000	-3829.541	549.113	67.922	0.000	0.000	0.000
0.000	0.000	0.000	0.000	0.000	0.000	-3926.307	619.178	489.138	-3909.938	518.725	498.265	0.000	0.000	0.000	0.000	0.000	0.000	-3828.666	550.345	65.935	0.000	0.000	0.000
0.000	0.000	0.000	0.000	0.000	0.000	-3924.653	621.287	487.286	-3918.390	515.017	498.936	0.000	0.000	0.000	0.000	0.000	0.000	-3827.777	551.460	64.483	0.000	0.000	0.000
0.000	0.000	0.000	0.000	0.000	0.000	-3920.221	622.073	485.245	-3913.382	516.499	492.850	0.000	0.000	0.000	0.000	0.000	0.000	-3827.138	552.242	63.460	0.000	0.000	0.000
0.000	0.000	0.000	0.000	0.000	0.000	-3915.169	622.874	482.860	-3908.274	517.350	488.763	0.000	0.000	0.000	0.000	0.000	0.000	-3827.018	552.476	62.760	0.000	0.000	0.000
0.000	0.000	0.000	0.000	0.000	0.000	-3908.598	622.178	481.246	-3902.154	518.442	485.920	0.000	0.000	0.000	0.000	0.000	0.000	-3825.822	552.528	61.400	0.000	0.000	0.000
0.000	0.000	0.000	0.000	0.000	0.000	-3905.619	624.340	479.688	-3896.311	518.628	486.277	0.000	0.000	0.000	0.000	0.000	0.000	-3824.921	552.315	59.287	0.000	0.000	0.000
0.000	0.000	0.000	0.000	0.000	0.000	-3899.105	624.616	478.873	-3892.964	518.607	488.250	0.000	0.000	0.000	0.000	0.000	0.000	-3832.782	555.157	60.387	0.000	0.000	0.000
0.000	0.000	0.000	0.000	0.000	0.000	-3889.982	625.197	477.955	-3886.154	519.372	487.082	0.000	0.000	0.000	0.000	0.000	0.000	-3825.198	553.443	58.137	0.000	0.000	0.000
0.000	0.000	0.000	0.000	0.000	0.000	-3883.837	625.948	477.120	-3880.969	520.533	485.005	0.000	0.000	0.000	0.000	0.000	0.000	-3823.481	553.143	57.159	0.000	0.000	0.000
0.000	0.000	0.000	0.000	0.000	0.000	-3878.732	626.592	475.530	-3873.656	521.131	483.437	0.000	0.000	0.000	0.000	0.000	0.000	-3824.368	553.623	56.374	0.000	0.000	0.000
0.000	0.000	0.000	0.000	0.000	0.000	-3873.270	627.325	473.872	-3867.769	523.172	477.188	0.000	0.000	0.000	0.000	0.000	0.000	-3824.594	554.250	54.701	0.000	0.000	0.000
0.000	0.000	0.000	0.000	0.000	0.000	-3868.752	627.783	470.061	-3863.384	523.283	479.409	0.000	0.000	0.000	0.000	0.000	0.000	-3824.323	554.434	54.172	0.000	0.000	0.000
0.000	0.000	0.000	0.000	0.000	0.000	-3863.656	628.686	469.181	-3860.488	524.626	475.047	0.000	0.000	0.000	0.000	0.000	0.000	-3823.778	554.468	53.557	0.000	0.000	0.000
0.000	0.000	0.000	0.000	0.000	0.000	-3858.589	629.564	466.508	-3851.763	524.552	473.900	0.000	0.000	0.000	0.000	0.000	0.000	-3823.680	554.398	52.636	0.000	0.000	0.000
0.000	0.000	0.000	0.000	0.000	0.000	-3852.478	629.934	464.767	-3849.976	525.680	470.141	0.000	0.000	0.000	0.000	0.000	0.000	-3823.281	554.413	52.035	0.000	0.000	0.000
0.000	0.000	0.000	0.000	0.000	0.000	-3848.382	630.648	461.941	-3843.754	526.055	468.264	0.000	0.000	0.000	0.000	0.000	0.000	-3822.987	554.417	51.808	0.000	0.000	0.000
0.000	0.000	0.000	0.000	0.000	0.000	-3844.386	631.427	459.922	-3839.675	526.653	465.443	0.000	0.000	0.000	0.000	0.000	0.000	-3821.099	552.972	51.358	0.000	0.000	0.000
0.000	0.000	0.000	0.000	0.000	0.000	-3839.717	632.252	457.169	-3836.627	527.809	462.343	0.000	0.000	0.000	0.000	0.000	0.000	-3820.941	553.131	50.828	0.000	0.000	0.000
0.000	0.000	0.000	0.000	0.000	0.000	-3835.196	632.677	455.289	-3832.543	528.623	459.115	0.000	0.000	0.000	0.000	0.000	0.000	-3820.818	553.345	50.197	0.000	0.000	0.000
0.000	0.000	0.000	0.000	0.000	0.000	-3832.487	633.809	451.974	-3826.988	528.880	456.778	0.000	0.000	0.000	0.000	0.000	0.000	-3820.294	553.437	49.519	0.000	0.000	0.000
0.000	0.000	0.000	0.000	0.000	0.000	-3828.637	634.566	449.271	-3819.895	528.735	455.663	0.000	0.000	0.000	0.000	0.000	0.000	-3819.431	553.425	48.806	0.000	0.000	0.000
0.000	0.000	0.000	0.000	0.000	0.000	-3823.322	634.554	446.514	-3817.453	529.838	451.961	0.000	0.000	0.000	0.000	0.000	0.000	-3818.289	553.323	48.071	0.000	0.000	0.000
0.000	0.000	0.000	0.000	0.000	0.000	-3817.664	634.214	445.484	-3810.868	529.955	450.294	0.000	0.000	0.000	0.000	0.000	0.000	-3816.932	553.146	47.325	0.000	0.000	0.000
0.000	0.000	0.000	0.000	0.000	0.000	-3815.160	634.750	442.285	-3809.357	530.606	446.836	0.000	0.000	0.000	0.000	0.000	0.000	-3815.420	552.910	46.581	0.000	0.000	0.000
0.000	0.000	0.000	0.000	0.000	0.000	-3810.927	634.939	440.236	-3807.042	531.060	443.917	0.000	0.000	0.000	0.000	0.000	0.000	-3813.815	552.630	45.849	0.000	0.000	0.000
0.000	0.000	0.000	0.000	0.000	0.000	-3808.428	635.307	437.291	-3800.860	530.565	441.995	0.000	0.000	0.000	0.000	0.000	0.000	-3812.178	552.322	45.142	0.000	0.000	0.000
0.000	0.000	0.000	0.000	0.000	0.000	-3804.513	634.795	435.726	-3795.944	530.365	440.113	0.000	0.000	0.000	0.000	0.000	0.000	-3810.573	552.000	44.472	0.000	0.000	0.000
0.000	0.000	0.000	0.000	0.000	0.000	-3800.230	634.641	433.244	-3794.654	530.480	437.038	0.000	0.000	0.000	0.000	0.000	0.000	-3809.059	551.681	43.851	0.000	0.000	0.000
0.000	0.000	0.000	0.000	0.000	0.000	-3797.804	634.319	431.319	-3793.911	530.782	434.137	0.000	0.000	0.000	0.000	0.000	0.000	-3807.699	551.379	43.290	0.000	0.000	0.000
0.000	0.000	0.000	0.000	0.000	0.000	-3796.481	634.511	428.622	-3789.102	529.882	432.187	0.000	0.000	0.000	0.000	0.000	0.000	-3806.555	551.111	42.802	0.000	0.000	0.000
0.000	0.000	0.000	0.000	0.000	0.000	-3792.025	633.423	427.095	-3783.468	528.839	431.434	0.000	0.000	0.000	0.000	0.000	0.000	-3805.688	550.890	42.398	0.000	0.000	0.000
0.000	0.000	0.000	0.000	0.000	0.000	-3788.026	632.231	425.408	-3781.031	528.799	427.211	0.000	0.000	0.000	0.000	0.000	0.000	-3805.160	550.733	42.090	0.000	0.000	0.000
0.000	0.000	0.000	0.000	0.000	0.000	-3786.621	632.003	422.766	-3780.650	528.066	426.345	0.000	0.000	0.000	0.000	0.000	0.000	-3805.032	550.655	41.891	0.000	0.000	0.000
0.000	0.000	0.000	0.000	0.000	0.000	-3783.957	630.838	421.161	-3776.362	526.828	425.273	0.000	0.000	0.000	0.000	0.000	0.000	-3805.366	550.672	41.811	0.000	0.000	0.000
0.000	0.000	0.000	0.000	0.000	0.000	-3779.668	629.308	419.622	-3775.187	526.036	423.060	0.000	0.000	0.000	0.000	0.000	0.000	-3806.225	550.798	41.864	0.000	0.000	0.000
0.000	0.000	0.000	0.000	0.000	0.000	-3782.698	631.730	415.668	-3774.998	525.604	421.183	0.000	0.000	0.000	0.000	0.000	0.000	-3807.669	551.049	42.060	0.000	0.000	0.000
0.000	0.000	0.000	0.000	0.000	0.000	-3776.963	629.652	414.089	-3771.951	524.231	420.158	0.000	0.000	0.000	0.000	0.000	0.000	-3809.760	551.441	42.412	0.000	0.000	0.000
0.000	0.000	0.000	0.000	0.000	0.000	-3775.002	628.415	413.367	-3769.372	523.135	419.130	0.000	0.000	0.000	0.000	0.000	0.000	-3812.560	551.988	42.931	0.000	0.000	0.000
0.000	0.000	0.000	0.000	0.000	0.000	-3773.008	627.266	412.405	-3766.904	521.860	418.740	0.000	0.000	0.000	0.000	0.000	0.000	-3816.130	552.706	43.630	0.000	0.000	0.000
0.000	0.000	0.000	0.000	0.000	0.000	-3771.121	626.005	411.381	-3770.127	521.920	416.707	0.000	0.000	0.000	0.000	0.000	0.000	-3820.533	553.611	44.521	0.000	0.000	0.000
0.000	0.000	0.000	0.000	0.000	0.000	-3769.123	624.522	410.482	-3768.237	520.801	416.245	0.000	0.000	0.000	0.000	0.000	0.000	-3825.830	554.717	45.614	0.000	0.000	0.000
0.000	0.000	0.000	0.000	0.000	0.000	-3767.524	623.352	409.939	-3764.050	519.233	416.972	0.000	0.000	0.000	0.000	0.000	0.000	-3820.212	553.512	44.465	0.000	0.000	0.000
0.000	0.000	0.000	0.000	0.000	0.000	-3766.030	622.201	409.348	-3760.927	517.922	417.820	0.000	0.000	0.000	0.000	0.000	0.000	-3825.561	554.476	45.557	0.000	0.000	0.000
0.000	0.000	0.000	0.000	0.000	0.000	-3764.700	621.050	409.194	-3763.495	517.862	416.713	0.000	0.000	0.000	0.000	0.000	0.000	-3825.762	554.453	45.514	0.000	0.000	0.000
0.000	0.000	0.000	0.000	0.000	0.000	-3763.790	620.156	409.473	-3762.881	517.280	417.160	0.000	0.000	0.000	0.000	0.000	0.000	-3825.539	554.388	45.523	0.000	0.000	0.000
0.000	0.000	0.000	0.000	0.000	0.000	-3762.937	619.300	409.900	-3762.008	516.680	418.112	0.000	0.000	0.000	0.000	0.000	0.000	-3825.557	554.386	45.482	0.000	0.000	0.000
0.000	0.000	0.000	0.000	0.000	0.000	-3762.115	618.602	410.564	-3762.876	516.465	418.896	0.000	0.000	0.000	0.000	0.000	0.000	-3825.354	554.281	45.391	0.000	0.000	0.000
0.000	0.000	0.000	0.000	0.000	0.000	-3761.504	618.100	411.608	-3763.906	516.539	419.491	0.000	0.000	0.000	0.000	0.000	0.000	-3825.233	554.331	45.511	0.000	0.000	0.000
0.000	0.000	0.000	0.000	0.000	0.000	-3760.831	617.685	412.768	-3761.009	516.079	421.428	0.000	0.000	0.000	0.000	0.000	0.000	-3825.294	554.289	45.340	0.000	0.000	0.000
0.000	0.000	0.000	0.000	0.000	0.000	-3760.338	617.502	414.478	-3759.756	515.481	424.173	0.000	0.000	0.000	0.000	0.000	0.000	-3820.180	553.442	43.699	0.000	0.000	0.000
0.000	0.000	0.000	0.000	0.000	0.000	-3759.442	617.251	416.186	-3760.239	515.840	425.757	0.000	0.000	0.000	0.000	0.000	0.000	-3819.991	553.390	43.657	0.000	0.000	0.000
0.000	0.000	0.000	0.000	0.000	0.000	-3758.606	617.246	418.398	-3758.691	515.638	428.614	0.000	0.000	0.000	0.000	0.000	0.000	-3819.953	553.545	43.497	0.000	0.000	0.000
0.000	0.000	0.000	0.000	0.000	0.000	-3757.677	616.934	421.235	-3756.482	515.584	431.526	0.000	0.000	0.000	0.000	0.000	0.000	-3819.921	553.566	43.295	0.000	0.000	0.000
0.000	0.000	0.000	0.000	0.000	0.000	-3756.228	616.885	424.147	-3756.507	515.675	434.108	0.000	0.000	0.000	0.000	0.000	0.000	-3819.685	553.585	43.181	0.000	0.000	0.000
0.000	0.000	0.000	0.000	0.000	0.000	-3754.571	617.037	427.329	-3752.474	515.385	438.392	0.000	0.000	0.000	0.000	0.000	0.000	-3819.238	553.604	43.229	0.000	0.000	0.000
0.000	0.000	0.000	0.000	0.000	0.000	-3752.396	616.988	430.857	-3753.172	515.808	440.955	0.000	0.000	0.000	0.000	0.000	0.000	-3819.247	553.622	42.759	0.000	0.000	0.000
0.000	0.000	0.000	0.000	0.000	0.000	-3749.792	616.875	434.670	-3747.576	515.041	445.623	0.000	0.000	0.000	0.000	0.000	0.000	-3819.108	553.517	42.424	0.000	0.000	0.000
0.000	0.000	0.000	0.000	0.000	0.000	-3746.344	616.458	438.538	-3746.787	515.246	448.341	0.000	0.000	0.000	0.000	0.000	0.000	-3819.705	553.984	41.096	0.000	0.000	0.000
0.000	0.000	0.000	0.000	0.000	0.000	-3742.864	616.019	442.702	-3741.411	514.329	453.574	0.000	0.000	0.000	0.000	0.000	0.000	-3819.287	553.965	40.877	0.000	0.000	0.000
0.000	0.000	0.000	0.000	0.000	0.000	-3738.342	615.276	446.713	-3734.408	513.358	457.097	0.000	0.000	0.000	0.000	0.000	0.000	-3818.920	553.911	40.752	0.000	0.000	0.000
0.000	0.000	0.000	0.000	0.000	0.000	-3733.694	614.638	450.893	-3741.631	513.934	459.927	0.000	0.000	0.000	0.000	0.000	0.000	-3818.724	553.799	40.632	0.000	0.000	0.000
0.000	0.000	0.000	0.000	0.000	0.000	-3728.171	613.452	454.978	-3736.190	512.891	464.362	0.000	0.000	0.000	0.000	0.000	0.000	-3818.162	553.645	40.410	0.000	0.000	0.000
0.000	0.000	0.000	0.000	0.000	0.000	-3722.406	612.380	458.989	-3730.640	512.033	469.219	0.000	0.000	0.000	0.000	0.000	0.000	-3824.071	555.083	40.984	0.000	0.000	0.000
0.000	0.000	0.000	0.000	0.000	0.000	-3716.093	611.095	462.822	-3725.117	511.330	473.755	0.000	0.000	0.000	0.000	0.000	0.000	-3817.242	553.294	40.177	0.000	0.000	0.000
0.000	0.000	0.000	0.000	0.000	0.000	-3709.750	609.919	467.022	-3718.380	510.188	478.513	0.000	0.000	0.000	0.000	0.000	0.000	-3822.861	554.629	40.669	0.000	0.000	0.000
0.000	0.000	0.000	0.000	0.000	0.000	-3702.758	608.761	470.595	-3712.633	509.505	482.838	0.000	0.000	0.000	0.000	0.000	0.000	-3814.572	551.390	39.383	0.000	0.000	0.000
0.000	0.000	0.000	0.000	0.000	0.000	-3695.655	607.730	474.317	-3706.023	508.967	487.222	0.000	0.000	0.000	0.000	0.000	0.000	-3814.349	551.257	38.235	0.000	0.000	0.000
0.000	0.000	0.000	0.000	0.000	0.000	-3688.440	606.851	478.324	-3699.658	508.443	491.545	0.000	0.000	0.000	0.000	0.000	0.000	-3814.028	551.466	37.054	0.000	0.000	0.000
0.000	0.000	0.000	0.000	0.000	0.000	-3680.725	606.047	481.774	-3692.547	507.955	495.817	0.000	0.000	0.000	0.000	0.000	0.000	-3812.767	551.200	36.666	0.000	0.000	0.000
0.000	0.000	0.000	0.000	0.000	0.000	-3672.941	605.455	485.570	-3686.042	507.899	499.042	0.000	0.000	0.000	0.000	0.000	0.000	-3815.732	552.339	35.697	0.000	0.000	0.000
0.000	0.000	0.000	0.000	0.000	0.000	-3664.798	605.020	489.046	-3677.701	507.486	503.824	0.000	0.000	0.000	0.000	0.000	0.000	-3818.708	553.368	34.760	0.000	0.000	0.000
0.000	0.000	0.000	0.000	0.000	0.000	-3656.314	604.621	492.546	-3669.631	507.315	506.842	0.000	0.000	0.000	0.000	0.000	0.000	-3817.478	552.772	34.469	0.000	0.000	0.000
0.000	0.000	0.000	-3382.330	505.349	955.655	-3647.689	604.429	495.661	-3660.562	506.893	510.493	0.000	0.000	0.000	0.000	0.000	0.000	-3816.704	552.424	33.186	0.000	0.000	0.000
0.000	0.000	0.000	-3370.342	505.578	957.924	-3638.784	604.406	498.689	-3649.183	505.971	514.419	0.000	0.000	0.000	0.000	0.000	0.000	-3816.013	552.148	31.393	0.000	0.000	0.000
0.000	0.000	0.000	-3358.998	505.426	960.590	-3629.437	604.484	501.159	-3640.071	505.986	516.888	0.000	0.000	0.000	0.000	0.000	0.000	-3815.034	551.764	29.575	0.000	0.000	0.000
0.000	0.000	0.000	-3347.056	506.076	962.525	-3619.802	604.589	503.599	-3630.588	505.880	518.911	0.000	0.000	0.000	0.000	0.000	0.000	-3813.393	551.096	28.214	0.000	0.000	0.000
0.000	0.000	0.000	-3334.596	506.682	963.858	-3609.616	604.752	505.472	-3620.054	505.735	521.077	0.000	0.000	0.000	0.000	0.000	0.000	-3810.719	549.965	27.794	0.000	0.000	0.000
0.000	0.000	0.000	-3323.103	506.765	965.571	-3599.060	605.051	506.956	-3608.370	505.413	522.604	0.000	0.000	0.000	0.000	0.000	0.000	-3811.816	550.672	23.738	0.000	0.000	0.000
0.000	0.000	0.000	-3311.417	506.976	967.007	-3588.189	605.482	508.253	-3596.990	505.352	523.898	0.000	0.000	0.000	0.000	0.000	0.000	-3810.915	550.081	22.285	0.000	0.000	0.000
0.000	0.000	0.000	-3299.942	507.076	968.437	-3577.094	606.059	509.215	-3585.471	505.499	524.549	0.000	0.000	0.000	0.000	0.000	0.000	-3818.756	555.362	16.469	0.000	0.000	0.000
0.000	0.000	0.000	-3288.511	507.118	969.731	-3565.616	606.612	509.814	-3572.465	505.372	525.253	0.000	0.000	0.000	0.000	0.000	0.000	-3815.434	552.770	15.407	0.000	0.000	0.000
0.000	0.000	0.000	-3277.062	507.220	970.733	-3553.302	607.001	509.672	-3559.415	505.330	525.149	0.000	0.000	0.000	0.000	0.000	0.000	-3808.897	548.034	17.474	0.000	0.000	0.000
0.000	0.000	0.000	-3264.940	507.671	971.180	-3540.729	607.553	509.629	-3547.901	506.086	523.951	0.000	0.000	0.000	0.000	0.000	0.000	-3807.099	546.880	21.043	0.000	0.000	0.000
0.000	0.000	0.000	-3253.824	507.582	972.350	-3527.760	608.082	508.708	-3532.616	505.781	523.755	0.000	0.000	0.000	0.000	0.000	0.000	-3804.978	545.996	25.191	0.000	0.000	0.000
0.000	0.000	0.000	-3242.378	507.795	972.849	-3514.385	608.753	507.654	-3519.673	506.429	522.094	0.000	0.000	0.000	0.000	0.000	0.000	-3801.813	544.903	29.469	0.000	0.000	0.000
0.000	0.000	0.000	-3231.040	507.896	973.524	-3500.765	609.290	506.413	-3503.814	506.211	521.315	0.000	0.000	0.000	0.000	0.000	0.000	-3797.433	543.657	34.012	0.000	0.000	0.000
0.000	0.000	0.000	-3219.539	508.260	973.648	-3486.305	609.931	504.258	-3489.659	506.894	519.268	-3856.533	567.308	312.612	0.000	0.000	0.000	-3792.649	542.783	38.391	0.000	0.000	0.000
0.000	0.000	0.000	-3209.011	507.985	974.462	-3471.692	610.569	502.190	-3474.139	507.357	516.724	-3846.423	566.731	317.951	0.000	0.000	0.000	-3785.370	540.727	44.236	0.000	0.000	0.000
0.000	0.000	0.000	-3197.185	508.393	974.073	-3457.088	611.382	499.896	-3458.343	507.662	514.497	-3836.203	566.209	323.329	0.000	0.000	0.000	-3776.992	538.446	50.390	0.000	0.000	0.000
0.000	0.000	0.000	-3185.323	508.877	973.640	-3441.988	612.318	497.196	-3441.834	508.134	511.592	-3825.540	565.529	328.636	0.000	0.000	0.000	-3768.914	536.894	55.699	-3379.369	599.415	1030.305
0.000	0.000	0.000	-3174.581	508.712	973.534	-3426.621	613.171	494.402	-3426.775	509.017	508.375	-3815.459	565.200	335.006	0.000	0.000	0.000	-3759.646	537.907	59.857	-3369.088	598.937	1028.863
0.000	0.000	0.000	-3164.795	508.371	973.194	-3410.827	614.088	490.962	-3409.655	509.476	505.096	-3804.737	564.643	340.874	0.000	0.000	0.000	-3749.591	534.863	66.800	-3358.846	598.401	1027.245
0.000	0.000	0.000	-3155.690	507.917	972.646	-3394.960	614.881	487.767	-3394.105	510.522	501.162	-3793.466	563.898	346.613	0.000	0.000	0.000	-3739.806	531.304	73.694	-3348.542	597.844	1025.660
0.000	0.000	0.000	-3146.987	507.412	971.916	-3379.519	616.346	484.416	-3376.682	510.729	498.010	-3781.723	563.209	352.319	0.000	0.000	0.000	-3731.348	530.774	77.700	-3338.281	597.292	1023.700
0.000	0.000	0.000	-3138.409	506.916	971.028	-3363.306	617.243	480.797	-3360.229	511.315	494.198	-3769.496	562.291	358.198	0.000	0.000	0.000	-3721.371	532.247	81.449	-3328.048	596.667	1021.662
0.000	0.000	0.000	-3129.679	506.492	970.010	-3346.669	617.967	476.776	-3343.184	511.771	490.474	-3756.512	561.144	363.685	0.000	0.000	0.000	-3708.819	530.600	87.621	-3317.973	595.986	1019.533
0.000	0.000	0.000	-3120.519	506.201	968.886	-3329.908	618.707	472.751	-3325.407	511.906	486.755	-3742.714	560.036	368.862	0.000	0.000	0.000	-3696.302	528.252	93.782	-3307.667	595.309	1017.020
0.000	0.000	0.000	-3110.652	506.104	967.684	-3312.985	619.331	468.684	-3310.059	512.669	482.060	-3728.629	558.921	374.178	0.000	0.000	0.000	-3686.430	527.618	97.498	-3297.448	594.539	1014.542
0.000	0.000	0.000	-3099.800	506.264	966.427	-3296.122	619.941	464.788	-3292.269	512.542	478.222	-3713.043	557.115	378.412	0.000	0.000	0.000	-3676.573	526.781	100.859	-3287.184	593.789	1011.803
0.000	0.000	0.000	-3089.063	506.430	964.806	-3278.519	620.208	460.125	-3274.638	512.366	474.471	-3697.497	555.712	382.877	0.000	0.000	0.000	-3663.013	522.178	107.437	-3276.908	593.032	1008.871
-3116.067	747.675	993.291	-3078.440	506.594	962.858	-3261.475	620.825	456.070	-3257.639	512.261	470.004	-3681.788	554.639	387.339	0.000	0.000	0.000	-3652.016	521.893	110.471	-3266.754	592.241	1005.821
-3104.352	746.427	989.733	-3067.927	506.748	960.624	-3243.523	620.746	451.507	-3240.649	512.360	465.415	-3665.003	553.067	390.893	0.000	0.000	0.000	-3637.916	522.826	112.612	-3256.653	591.580	1002.568
-3093.814	746.330	987.171	-3057.526	506.884	958.143	-3224.952	620.790	446.468	-3223.163	512.137	461.147	-3647.091	551.302	393.704	0.000	0.000	0.000	-3625.403	521.782	115.322	-3246.627	590.926	999.296
-3081.954	744.694	983.411	-3047.234	506.994	955.454	-3206.539	619.996	442.072	-3205.572	511.761	456.801	-3629.934	550.262	396.880	0.000	0.000	0.000	-3611.246	520.440	118.774	-3236.702	590.368	995.889
-3071.003	743.695	980.285	-3037.050	507.069	952.596	-3188.739	619.245	437.783	-3187.518	511.425	452.726	-3612.416	549.374	399.847	0.000	0.000	0.000	-3595.244	519.281	120.888	-3226.945	589.907	992.315
-3063.193	745.510	979.623	-3026.973	507.101	949.609	-3170.312	618.920	433.185	-3169.473	510.933	448.330	-3594.403	548.715	402.191	0.000	0.000	0.000	-3577.607	516.984	124.551	-3217.200	589.501	988.649
-3050.708	743.538	974.232	-3017.001	507.083	946.532	-3151.647	618.467	428.765	-3151.353	510.562	444.359	-3576.212	547.942	404.167	0.000	0.000	0.000	-3568.475	518.674	123.754	-3207.803	589.185	985.026
-3043.525	745.620	973.612	-3007.134	507.005	943.405	-3133.174	618.178	424.869	-3133.326	510.248	440.339	-3558.194	547.405	406.204	0.000	0.000	0.000	-3542.992	514.295	127.299	-3198.399	589.001	981.272
-3031.415	743.707	968.193	-2997.370	506.861	940.266	-3112.510	616.710	419.684	-3114.669	509.852	436.752	-3539.154	546.716	406.997	0.000	0.000	0.000	-3523.339	512.323	129.274	-3189.191	588.900	977.596
-3021.163	742.794	964.227	-2987.708	506.641	937.156	-3094.684	616.944	417.122	-3095.784	509.514	433.461	-3520.227	546.014	407.751	0.000	0.000	0.000	-3503.178	510.288	130.188	-3180.062	588.854	973.839
-3012.033	743.578	961.825	-2978.147	506.337	934.113	-3073.932	615.622	412.876	-3076.395	508.964	430.599	-3500.933	545.471	407.836	0.000	0.000	0.000	-3482.383	508.414	131.524	-3171.062	588.840	970.182
-3003.291	746.758	961.103	-2968.686	505.943	931.177	-3052.231	613.820	408.654	-3056.720	508.359	427.966	-3482.196	545.196	408.178	0.000	0.000	0.000	-3463.911	507.412	131.262	-3162.039	588.876	966.453
-2996.096	747.133	958.912	-2959.322	505.448	928.387	-3024.740	612.441	405.757	-3037.416	507.853	425.771	-3463.258	544.996	407.981	0.000	0.000	0.000	-3442.971	506.111	130.059	-3153.057	588.759	962.825
-2989.564	745.813	955.813	-2950.056	504.845	925.783	-3005.356	612.331	404.133	-3018.229	507.420	423.637	-3442.948	544.350	406.391	0.000	0.000	0.000	-3421.785	504.650	129.528	-3143.933	588.624	959.196
-2982.806	743.911	952.368	-2940.885	504.127	923.404	-2985.592	611.901	402.450	-2998.371	507.000	421.625	-3423.842	544.217	405.200	0.000	0.000	0.000	-3392.196	500.596	130.414	-3134.716	588.372	955.682
-2974.938	742.536	949.137	-2931.809	503.284	921.289	-2965.749	611.472	401.256	-2978.042	506.387	420.138	-3403.685	543.926	403.078	0.000	0.000	0.000	-3369.471	499.241	128.954	-3125.472	588.136	952.341
-2965.072	742.801	946.682	-2924.535	506.581	918.350	-2945.689	611.020	400.370	-2957.699	505.741	419.483	-3383.871	543.720	400.808	0.000	0.000	0.000	-3345.686	497.363	127.193	-3110.824	589.502	948.149
-2943.732	746.736	941.816	-2917.000	501.957	919.109	-2925.605	610.573	399.747	-2937.057	505.144	418.270	-3364.676	543.958	398.701	0.000	0.000	0.000	-3322.394	495.813	124.997	-3101.344	589.316	945.333
-2934.032	746.786	939.945	-2902.935	500.746	915.846	-2905.596	610.237	399.689	-2917.157	504.515	418.106	-3344.432	543.694	395.190	0.000	0.000	0.000	-3298.406	494.076	123.235	-3091.744	589.111	942.936
-2938.613	751.391	944.494	-2893.189	500.045	914.553	-2886.012	610.175	400.502	-2896.914	503.946	417.966	-3324.382	543.649	391.787	0.000	0.000	0.000	-3274.665	492.592	120.061	-3082.042	588.878	940.932
-2914.288	746.622	936.028	-2883.091	499.382	913.340	-2865.231	609.094	400.026	-2876.881	503.347	418.172	-3304.155	543.576	387.637	0.000	0.000	0.000	-3249.472	490.695	117.961	-3072.156	588.666	939.342
-2904.623	746.675	934.100	-2873.178	498.833	912.216	-2849.287	609.125	401.644	-2856.358	502.448	419.296	-3284.428	543.606	383.698	0.000	0.000	0.000	-3222.954	488.494	115.391	-3062.098	588.448	938.050
-2897.255	744.968	934.760	-2863.164	498.467	910.920	-2832.157	608.666	402.085	-2836.610	501.935	420.344	-3263.948	543.343	378.894	0.000	0.000	0.000	-3198.088	487.177	111.797	-3051.806	588.174	937.040
-2885.218	745.465	932.740	-2852.938	497.821	910.381	-2812.589	608.111	404.062	-2813.467	500.364	422.161	-3243.810	543.192	373.913	0.000	0.000	0.000	-3172.659	485.785	108.487	-3043.884	587.357	936.132
-2875.929	746.129	931.947	-2842.526	497.363	910.084	-2792.213	608.375	405.374	-2798.490	500.271	422.306	-3223.359	542.780	368.539	0.000	0.000	0.000	-3145.796	484.034	105.215	-3033.549	587.041	935.615
-2864.684	745.729	929.611	-2832.126	497.197	909.672	-2765.260	607.196	410.236	-2778.859	499.800	424.424	-3202.945	542.386	362.845	0.000	0.000	0.000	-3118.835	482.710	101.387	-3023.113	586.739	935.307
-2854.255	745.887	928.346	-2821.939	497.423	908.787	-2746.347	606.182	413.065	-2759.772	498.996	427.334	-3182.256	541.599	357.025	0.000	0.000	0.000	-3092.115	481.602	98.057	-3012.558	586.385	935.110
-2843.477	745.946	926.758	-2810.961	497.481	909.171	-2727.837	605.536	416.115	-2740.721	498.335	430.561	-3161.565	541.187	350.867	0.000	0.000	0.000	-3063.979	480.397	94.645	-3001.828	586.030	935.049
-2832.752	746.152	925.479	-2800.035	497.670	909.844	-2708.607	604.706	419.599	-2721.922	497.726	433.978	-3140.743	540.630	344.682	-3095.781	493.484	308.543	-3035.743	479.449	91.096	-2990.949	585.652	935.284
-2821.452	745.953	924.459	-2789.272	498.024	910.259	-2690.479	603.884	422.961	-2703.551	497.136	437.707	-3117.892	539.299	336.732	-3073.676	493.307	302.772	-3007.147	478.646	87.662	-2980.050	585.242	935.508
-2810.703	746.317	924.131	-2778.144	498.218	911.342	-2672.611	603.122	426.988	-2684.975	496.601	442.228	-3097.076	536.309	330.741	-3052.503	493.150	297.846	-2979.270	478.390	83.542	-2968.897	584.862	936.011
-2799.408	746.340	923.500	-2767.083	498.387	913.063	-2633.176	596.158	438.606	-2667.015	496.000	446.243	-3076.050	540.150	320.709	-3030.138	493.050	291.641	-2948.909	477.407	81.246	-2957.679	584.455	936.669
-2787.529	746.260	923.091	-2755.930	498.715	914.131	-2614.966	595.417	442.841	-2649.364	495.260	450.550	-3055.196	540.304	312.749	-3008.662	493.328	285.125	-2920.091	477.132	78.012	-2946.319	584.112	937.565
-2776.270	746.525	923.423	-2744.638	498.659	915.557	-2600.623	595.466	446.664	-2632.518	494.500	454.867	-3034.619	540.256	304.491	-2985.968	493.087	278.895	-2891.518	477.049	74.740	-2934.186	583.564	938.900
-2763.912	746.249	923.182	-2735.339	499.828	918.210	-2603.483	600.409	445.162	-2615.616	493.881	459.449	-3012.912	540.363	296.542	-2964.050	492.853	273.175	-2855.975	476.678	73.535	-2922.586	583.428	940.375
-2752.133	746.289	923.782	-2725.628	499.529	921.104	-2587.990	600.161	449.657	-2599.205	493.346	464.276	-2992.199	540.602	288.105	-2940.738	492.460	267.266	-2826.584	476.607	70.666	-2910.994	583.396	942.258
-2739.394	745.932	924.134	-2714.236	498.948	923.653	-2569.498	599.135	454.788	-2582.838	492.556	469.065	-2968.051	540.967	276.529	-2906.642	489.959	263.685	-2801.574	476.687	66.766	-2899.112	583.417	944.216
-2727.006	745.949	924.821	-2702.511	499.072	925.852	-2553.736	598.619	459.682	-2566.872	492.058	473.812	-2943.424	541.359	264.751	-2892.479	492.576	254.406	-2771.808	476.995	64.316	-2887.136	583.502	946.554
-2720.774	748.005	929.688	-2690.878	498.550	928.697	-2535.999	598.312	465.143	-2551.338	491.363	478.716	-2921.278	541.679	255.703	-2865.425	492.558	248.636	-2741.735	477.158	63.216	-2874.927	583.689	948.999
-2707.929	747.649	930.539	-2679.108	498.016	931.757	-2521.260	597.380	470.358	-2532.301	492.268	483.634	-2899.131	542.227	246.881	-2842.642	492.876	241.722	-2703.321	476.340	64.943	-2867.273	582.938	951.700
-2694.970	747.232	931.666	-2667.243	497.568	935.134	-2506.422	596.626	475.325	-2517.174	491.503	488.479	-2876.588	542.895	237.792	-2819.349	493.096	234.583	-2673.373	476.532	63.410	-2854.675	583.227	954.704
-2681.795	746.798	932.829	-2654.483	498.333	937.092	-2491.384	595.713	480.210	-2499.550	489.507	494.448	-2853.531	543.528	228.639	-2796.474	493.585	227.967	-2643.645	476.810	62.478	-2841.960	583.648	957.767
-2669.100	746.571	934.826	-2643.027	497.105	941.589	-2476.852	594.795	485.063	-2485.460	488.699	499.008	-2831.293	543.935	220.101	-2773.498	494.164	221.344	-2613.730	476.935	61.901	-2829.225	584.188	960.912
-2655.133	745.790	936.166	-2630.271	497.385	944.363	-2462.514	593.929	489.888	-2474.751	488.875	502.027	-2810.726	545.645	210.900	-2749.902	494.628	214.509	-2583.980	477.147	61.351	-2816.424	584.659	964.175
-2641.233	744.802	937.580	-2618.586	496.371	948.965	-2448.477	592.770	494.610	-2458.347	486.777	507.394	-2786.636	547.557	203.165	-2723.548	493.720	210.090	-2554.403	477.569	61.151	-2802.079	586.046	967.457
-2628.550	744.590	940.025	-2605.612	496.779	951.653	-2434.673	591.563	498.845	-2445.348	485.686	511.233	-2760.384	549.426	196.285	-2695.100	493.842	204.550	-2525.854	479.058	60.481	-2789.052	586.585	970.899
-2614.155	743.725	941.461	-2593.389	496.097	955.863	-2421.042	590.276	503.109	-2432.638	484.655	514.893	-2733.330	551.007	189.646	-2671.276	494.167	198.512	-2496.428	479.428	61.209	-2775.828	587.050	974.382
-2599.792	742.293	943.163	-2581.767	494.845	960.849	-2407.564	588.839	507.143	-2420.394	483.548	518.337	-2706.836	552.054	182.636	-2647.566	494.819	191.992	-2467.090	479.893	61.995	-2762.632	587.526	977.933
-2584.527	738.919	945.237	-2568.555	495.184	963.708	-2394.899	587.408	510.942	-2415.601	482.319	520.288	-2682.262	552.321	174.641	-2624.385	495.285	185.381	-2439.265	480.411	62.369	-2749.439	588.008	981.517
-2569.759	737.342	946.838	-2556.224	494.570	967.633	-2382.556	585.982	514.366	-2404.194	481.385	523.235	-2658.065	552.832	165.724	-2600.825	495.790	179.304	-2410.584	481.085	64.008	-2736.131	588.524	985.039
-2556.491	737.002	949.720	-2542.404	496.719	969.685	-2370.478	584.571	517.576	-2393.241	480.476	525.901	-2633.731	552.932	158.976	-2576.827	496.121	173.148	-2382.195	481.921	66.043	-2722.765	588.956	988.516
-2543.167	736.378	952.729	-2530.100	496.069	973.316	-2358.934	583.329	520.359	-2382.558	479.762	528.121	-2611.779	555.053	149.170	-2552.999	496.490	167.074	-2354.234	483.004	68.141	-2709.511	589.463	991.986
-2528.087	734.946	954.724	-2517.573	496.036	976.678	-2347.769	581.977	522.848	-2372.379	478.930	530.138	-2587.654	554.783	142.599	-2529.065	496.555	161.809	-2328.923	484.975	69.581	-2696.175	589.974	995.325
-2512.280	733.290	956.197	-2505.371	495.427	979.964	-2336.935	580.825	524.845	-2362.275	478.273	531.750	-2563.555	554.837	135.878	-2506.797	497.821	155.641	-2304.118	486.505	71.300	-2682.849	590.483	998.649
-2498.421	732.543	959.204	-2492.797	495.378	982.744	-2326.519	579.635	526.712	-2352.507	477.504	533.093	-2540.942	556.687	126.653	-2482.959	497.281	150.864	-2277.408	488.017	74.223	-2669.503	590.952	1001.876
-2484.138	731.681	961.731	-2480.849	494.370	985.908	-2316.557	578.501	528.200	-2342.737	476.797	534.106	-2517.648	553.555	119.567	-2459.599	497.100	146.605	-2251.341	489.753	77.493	-2656.151	591.376	1004.898
-2470.308	731.125	964.731	-2468.149	494.530	988.170	-2306.737	577.444	529.471	-2333.117	475.994	534.826	-2493.976	552.769	114.119	-2436.421	497.113	142.039	-2225.894	491.561	80.927	-2642.749	591.818	1007.913
-2456.659	730.556	967.767	-2455.716	494.346	990.582	-2297.509	576.535	530.416	-2323.648	475.171	535.184	-2470.777	552.167	108.878	-2414.052	496.986	138.672	-2201.246	493.550	84.690	-2629.518	592.290	1010.673
-2442.557	729.711	969.939	-2443.225	494.160	992.593	-2288.095	575.505	530.877	-2314.277	474.434	535.279	-2448.004	551.759	104.155	-2397.381	497.821	133.083	-2177.641	495.517	88.432	-2616.280	592.768	1013.308
-2431.221	730.344	974.358	-2432.516	491.388	996.176	-2279.171	574.826	530.971	-2304.969	473.763	535.052	-2426.256	551.912	100.355	-2375.522	497.855	130.120	-2154.515	497.359	92.722	-2603.107	593.201	1015.771
-2418.732	730.195	977.321	-2420.279	490.960	998.360	-2270.071	573.870	530.885	-2296.010	472.935	534.811	-2404.400	551.528	96.258	-2354.474	497.734	127.622	-2132.252	499.048	96.980	-2589.954	593.674	1018.079
-2404.266	729.061	978.746	-2407.932	490.723	999.847	-2260.992	573.208	530.535	-2285.403	472.739	534.231	-2385.660	552.048	92.646	-2334.098	498.755	125.050	-2110.813	500.393	101.521	-2576.983	594.081	1020.204
-2392.327	729.104	981.508	-2395.747	490.102	1001.838	-2252.175	572.520	529.895	-2278.248	471.923	533.583	-2365.051	551.916	89.540	-2314.234	498.409	123.273	-2090.450	501.502	106.081	-2564.039	594.446	1022.104
-2373.371	724.926	980.859	-2383.456	489.924	1003.107	-2243.129	571.899	529.226	-2269.401	471.500	532.827	-2345.344	551.822	87.055	-2295.341	498.481	121.705	-2071.028	502.256	110.673	-2551.165	594.772	1023.725
-2364.766	726.989	983.878	-2371.260	489.432	1004.331	-2233.786	571.246	528.341	-2260.780	471.257	532.080	-2326.281	551.628	84.588	-2277.314	498.286	120.644	-2052.613	502.789	115.151	-2538.397	595.076	1025.209
-2347.669	723.836	984.184	-2359.240	488.780	1005.791	-2224.880	570.878	527.549	-2250.668	471.234	531.408	-2308.252	551.531	82.630	-2259.868	498.213	119.547	-2035.104	503.260	119.423	-2525.724	595.435	1026.432
-2334.876	723.485	985.448	-2347.176	488.265	1006.827	-2215.340	570.435	526.771	-2243.220	471.034	530.614	-2291.066	551.403	81.028	-2243.674	498.229	118.274	-2018.609	503.624	123.590	-2513.174	595.763	1027.453
-2321.279	722.289	986.087	-2335.129	487.745	1007.744	-2206.399	570.226	525.895	-2233.176	471.346	529.966	-2274.882	551.216	79.590	-2228.138	498.156	117.769	-2003.110	503.931	127.423	-2500.739	596.129	1028.320
-2309.180	721.660	987.471	-2323.210	487.172	1008.569	-2197.238	570.077	524.922	-2223.822	471.300	529.106	-2259.631	550.924	78.326	-2213.219	497.992	117.036	-1988.768	504.248	131.002	-2488.482	596.448	1028.913
-2295.978	720.514	988.179	-2311.464	486.559	1009.514	-2190.043	569.942	523.863	-2216.069	471.420	528.293	-2245.264	550.566	77.256	-2199.325	497.864	116.637	-1975.094	504.410	133.816	-2476.229	596.801	1029.254
-2277.162	709.155	991.721	-2299.767	485.970	1010.255	-2180.799	570.096	523.091	-2205.095	471.708	527.462	-2231.861	550.304	76.292	-2186.371	497.661	116.559	-1962.569	504.461	135.987	-2464.156	597.114	1029.416
-2264.779	708.573	992.830	-2288.159	485.312	1010.797	-2171.260	570.257	522.657	-2195.489	471.763	526.859	-2219.387	549.997	75.461	-2173.962	497.348	115.989	-1950.634	504.316	137.269	-2452.202	597.380	1029.239
-2251.694	707.368	993.161	-2276.643	484.526	1011.395	-2161.719	570.502	522.260	-2185.715	472.134	526.070	-2207.709	549.705	74.615	-2162.423	497.133	115.472	-1939.225	504.017	137.596	-2440.293	597.575	1029.012
-2240.172	707.433	993.551	-2265.211	483.865	1011.736	-2152.872	571.323	521.511	-2175.557	472.411	525.369	-2197.036	549.320	73.304	-2151.845	497.025	115.091	-1928.347	503.531	137.142	-2428.471	597.802	1028.413
-2228.175	706.946	993.999	-2253.781	483.241	1011.924	-2142.742	571.641	521.351	-2165.344	472.791	524.676	-2187.333	549.304	72.936	-2141.840	496.893	114.550	-1918.203	502.890	136.116	-2416.709	597.981	1027.662
-2215.986	706.747	992.958	-2242.638	482.457	1012.020	-2133.314	572.331	520.795	-2154.766	473.228	523.998	-2178.404	549.532	72.576	-2132.734	496.963	114.136	-1909.125	502.185	134.454	-2405.066	598.139	1026.705
-2203.536	705.983	992.738	-2231.362	481.767	1011.901	-2123.526	572.925	520.186	-2144.132	473.533	523.277	-2170.265	550.016	72.298	-2124.558	497.214	113.544	-1900.888	501.320	132.364	-2393.462	598.372	1025.467
-2191.065	705.114	992.534	-2220.313	480.772	1011.855	-2113.913	573.803	519.339	-2133.266	473.817	522.660	-2163.015	550.556	71.911	-2117.027	497.550	112.677	-1893.416	500.765	129.713	-2381.977	598.544	1024.072
-2179.236	704.695	992.613	-2204.465	485.481	1008.591	-2103.503	574.122	518.619	-2122.112	474.143	521.879	-2156.640	551.179	71.632	-2110.390	497.838	111.830	-1886.679	500.359	126.324	-2370.481	598.672	1022.436
-2167.731	704.767	991.069	-2193.363	484.606	1008.065	-2093.752	574.797	517.380	-2110.650	474.364	520.946	-2151.154	551.790	71.783	-2104.113	498.341	110.587	-1881.265	499.687	122.996	-2359.051	598.737	1020.656
-2155.424	703.664	990.664	-2182.462	483.568	1007.392	-2083.327	575.250	516.361	-2098.996	474.527	519.956	-2146.477	552.482	72.690	-2098.634	498.640	109.638	-1876.553	499.648	118.011	-2347.575	598.838	1018.668
-2143.819	703.651	989.107	-2171.969	479.016	1008.281	-2072.229	575.089	515.519	-2087.319	474.628	518.990	-2142.796	553.277	73.794	-2093.855	499.223	108.289	-1872.884	500.026	112.844	-2336.215	598.920	1016.480
-2131.246	702.356	987.982	-2161.091	477.889	1007.413	-2061.988	575.264	514.100	-2075.665	474.553	517.878	-2139.839	554.184	74.658	-2090.120	499.827	107.125	-1869.615	500.885	106.557	-2324.822	599.006	1014.214
-2119.655	701.869	985.713	-2150.207	476.796	1006.345	-2050.636	574.817	513.181	-2064.080	474.442	516.449	-2137.750	554.957	75.241	-2087.083	500.297	106.100	-1867.037	501.689	100.154	-2313.526	599.107	1011.749
-2114.168	709.176	981.063	-2139.645	475.174	1005.205	-2039.509	574.465	511.632	-2052.514	474.171	514.744	-2136.483	555.427	75.577	-2085.230	500.979	105.338	-1864.590	502.500	93.510	-2302.335	599.164	1009.200
-2102.430	708.548	978.569	-2128.317	474.974	1003.332	-2027.831	573.920	510.234	-2041.230	473.995	513.265	-2135.838	555.551	75.971	-2083.751	501.530	104.523	-1862.600	503.523	87.080	-2291.152	599.231	1006.549
-2090.920	708.040	976.092	-2117.512	473.915	1001.843	-2015.709	573.136	508.771	-2029.943	473.731	511.690	-2135.202	555.474	76.217	-2082.568	501.656	104.139	-1860.992	504.569	81.605	-2280.036	599.249	1003.814
-2079.056	707.111	973.278	-2106.527	472.937	1000.015	-2003.994	572.530	506.797	-2018.570	473.657	509.605	-2134.546	555.199	76.599	-2081.184	501.821	103.589	-1859.513	505.749	76.779	-2268.911	599.280	1000.873
-2067.550	706.287	970.361	-2094.910	471.118	998.532	-1992.581	572.064	504.606	-2007.463	473.490	507.568	-2133.654	554.930	77.166	-2079.745	501.847	103.389	-1858.171	506.822	72.281	-2257.851	599.269	997.853
-2056.112	705.568	967.242	-2080.296	470.775	995.526	-1980.843	571.608	502.234	-1996.350	473.384	505.146	-2132.734	554.732	77.698	-2077.235	502.106	102.690	-1856.496	507.837	67.937	-2246.785	599.184	994.767
-2044.427	704.324	964.308	-2069.472	469.529	993.531	-1970.160	571.453	499.568	-1985.627	473.196	502.886	-2131.707	554.655	78.604	-2074.987	502.295	102.342	-1853.936	509.052	64.080	-2235.813	599.118	991.650
-2033.334	703.684	961.032	-2059.367	468.072	992.159	-1959.245	571.207	497.088	-1974.809	473.042	500.315	-2130.421	554.905	79.325	-2072.693	502.608	102.304	-1852.555	509.767	61.276	-2224.875	598.983	988.474
-2021.963	702.852	957.571	-2047.383	467.942	989.003	-1949.156	571.215	494.106	-1964.382	472.928	497.711	-2129.277	555.176	80.245	-2070.613	503.007	102.316	-1851.854	509.980	58.483	-2214.071	598.775	985.281
-2010.698	702.195	953.818	-2036.637	466.738	986.987	-1939.277	571.209	491.577	-1954.111	472.835	494.979	-2128.172	555.719	81.189	-2068.522	503.556	102.328	-1850.744	509.835	56.219	-2203.230	598.524	982.014
-1999.879	701.826	950.792	-2026.104	465.047	984.422	-1929.462	571.155	489.030	-1943.989	472.677	492.100	-2127.196	556.253	81.832	-2066.912	504.148	102.432	-1849.235	509.558	53.804	-2192.491	598.125	978.782
-1988.607	700.814	947.936	-2014.975	464.383	982.505	-1919.826	571.050	486.780	-1934.164	472.658	489.102	-2126.511	556.792	82.288	-2065.572	504.834	102.538	-1848.580	509.534	52.148	-2181.643	597.696	975.471
-1977.748	700.517	944.402	-2004.201	463.017	979.540	-1910.476	570.700	484.477	-1924.706	472.548	485.829	-2125.954	557.378	82.556	-2064.714	505.475	102.646	-1848.066	509.872	50.583	-2170.879	597.146	972.262
-1966.766	700.029	941.697	-1992.248	462.771	976.603	-1901.793	570.422	481.585	-1915.974	472.451	482.612	-2125.594	557.919	82.630	-2062.790	507.150	101.588	-1847.416	510.242	49.150	-2160.106	596.493	969.075
-1955.746	699.984	938.490	-1981.956	460.894	973.931	-1892.555	569.629	479.103	-1907.858	472.348	479.014	-2125.169	558.453	82.594	-2063.645	506.320	102.826	-1846.978	510.244	48.097	-2149.295	595.768	965.972
-1944.863	699.706	936.210	-1970.208	460.343	971.487	-1885.024	569.269	475.418	-1900.268	472.265	475.421	-2124.496	559.215	82.209	-2062.626	506.888	102.027	-1846.696	510.301	47.137	-2138.399	594.934	963.025
-1933.887	699.408	933.769	-1959.496	458.708	968.727	-1877.529	568.860	471.923	-1893.346	471.994	471.729	-2124.136	559.593	82.294	-2062.792	507.286	102.628	-1846.560	510.598	46.232	-2127.553	593.974	960.214
-1922.848	699.230	931.676	-1947.107	458.849	965.704	-1870.795	568.758	467.930	-1886.877	471.718	468.005	-2124.005	559.823	82.490	-2062.440	507.622	102.590	-1846.348	510.738	45.526	-2116.615	592.930	957.678
-1911.871	699.256	929.942	-1937.339	456.750	963.343	-1864.258	568.400	464.308	-1880.858	471.356	464.500	-2123.838	560.063	82.656	-2062.197	507.864	102.643	-1846.183	510.870	44.795	-2105.784	591.772	955.536
-1900.789	699.014	927.675	-1925.391	456.082	961.294	-1858.240	568.315	460.761	-1875.052	471.009	461.194	-2123.620	560.258	82.820	-2061.708	508.117	102.465	-1845.883	511.094	44.101	-2094.650	590.473	953.574
-1889.886	698.669	926.472	-1914.712	454.369	958.925	-1852.728	568.027	457.599	-1869.510	470.546	457.957	-2122.769	561.167	82.228	-2061.851	508.139	101.562	-1845.871	510.617	43.745	-2083.385	589.165	952.066
-1878.719	698.454	925.219	-1909.353	452.450	957.916	-1847.503	567.870	454.271	-1864.289	470.016	455.133	-2123.076	561.339	81.890	-2061.754	508.045	102.187	-1845.743	510.509	43.373	-2071.988	587.823	950.978
-1867.483	698.137	924.320	-1894.661	452.728	955.591	-1843.370	567.574	450.933	-1859.381	469.402	452.488	-2122.878	561.435	82.038	-2061.283	508.152	102.348	-1845.368	510.680	42.985	-2060.311	586.587	950.175
-1856.330	697.863	923.469	-1882.166	451.890	953.841	-1838.069	566.947	448.482	-1854.663	468.835	450.142	-2122.792	561.552	82.193	-2059.680	509.278	101.312	-1845.538	510.386	42.724	-2048.636	585.473	949.819
-1845.019	697.464	923.223	-1870.415	450.865	952.718	-1832.794	566.151	446.220	-1850.080	468.232	448.002	-2122.680	561.779	82.332	-2059.458	509.106	101.890	-1845.534	510.364	42.476	-2036.798	584.466	949.821
-1833.512	697.315	922.902	-1858.226	450.160	951.806	-1828.117	565.312	443.937	-1845.953	467.871	445.780	-2124.954	560.098	84.303	-2059.195	509.252	102.094	-1845.515	510.284	42.248	-2024.757	583.560	950.085
-1821.920	696.639	923.440	-1845.576	449.652	950.640	-1823.664	564.203	441.856	-1841.956	467.259	443.863	-2123.602	560.807	84.273	-2058.888	509.373	102.318	-1845.441	510.267	42.052	-2012.578	582.788	950.582
-1810.017	696.031	924.017	-1834.105	448.378	950.937	-1819.101	563.029	439.954	-1838.299	466.674	442.068	-2122.979	560.748	85.265	-2058.464	509.389	102.813	-1845.368	510.192	41.798	-2000.201	582.030	951.257
-1798.169	695.767	925.378	-1820.345	448.077	950.223	-1815.597	562.335	438.226	-1835.179	466.183	440.735	-2122.742	560.728	85.891	-2057.539	509.327	103.768	-1845.213	510.234	41.533	-1987.089	581.434	951.849
-1786.136	694.950	926.515	-1806.967	447.682	949.335	-1812.451	561.699	436.792	-1832.017	465.621	439.673	-2122.482	560.770	86.764	-2057.292	509.159	104.685	-1845.690	509.952	41.228	-1974.499	580.809	952.926
-1776.289	694.962	928.577	-1794.137	447.136	949.248	-1808.836	561.015	435.504	-1829.150	465.341	439.057	-2122.040	560.624	87.815	-2057.034	508.985	105.961	-1845.596	509.945	41.056	-1961.642	580.192	954.091
-1763.871	694.320	930.565	-1781.457	446.288	949.409	-1805.692	560.467	434.767	-1826.397	465.148	438.758	-2121.516	560.453	89.166	-2056.057	508.974	106.459	-1845.472	509.922	40.884	-1948.858	579.460	955.526
-1751.552	693.643	933.115	-1769.188	445.000	949.989	-1802.828	560.199	434.452	-1823.888	465.150	438.921	-2120.848	560.327	90.945	-2055.379	508.837	108.043	-1845.308	510.300	40.523	-1935.803	578.829	956.943
-1738.968	693.149	935.639	-1756.055	444.343	950.267	-1800.076	560.146	434.390	-1821.408	465.214	439.515	-2120.037	559.971	93.279	-2054.837	508.603	109.976	-1845.208	510.347	40.424	-1922.785	578.099	958.626
-1726.311	692.650	938.395	-1742.617	443.986	950.594	-1797.691	560.388	434.773	-1818.914	465.373	440.468	-2118.990	559.671	96.161	-2053.756	508.482	111.865	-1845.093	510.369	40.355	-1909.622	577.380	960.391
-1713.587	692.152	941.359	-1729.310	443.294	951.382	-1795.129	560.717	435.633	-1816.306	465.586	441.975	-2117.630	559.135	99.638	-2052.600	508.201	114.470	-1844.953	510.391	40.228	-1896.466	576.520	962.428
-1700.804	691.655	944.506	-1715.978	442.514	952.277	-1792.472	561.189	437.089	-1813.337	465.902	443.736	-2115.991	558.503	103.625	-2051.267	507.861	117.356	-1844.777	510.420	40.097	-1883.140	575.677	964.378
-1687.968	691.166	947.813	-1701.877	442.484	952.654	-1789.512	561.496	438.829	-1810.237	466.128	446.198	-2114.043	557.887	107.953	-2049.512	507.337	120.531	-1844.165	510.478	40.186	-1869.694	574.718	966.478
-1675.084	690.685	951.254	-1688.182	441.802	953.940	-1786.582	561.786	441.589	-1806.510	466.389	448.870	-2111.687	557.215	112.810	-2048.112	506.568	124.801	-1843.933	510.570	40.083	-1856.236	573.753	968.848
-1662.160	690.217	954.805	-1674.535	441.334	955.236	-1782.719	562.004	444.273	-1802.551	466.502	452.198	-2109.039	556.465	118.122	-2044.937	506.275	127.870	-1843.730	510.700	40.041	-1842.539	572.881	971.210
-1649.201	689.765	958.443	-1660.073	441.321	955.865	-1780.039	562.829	447.782	-1797.990	466.629	455.582	-2105.842	555.679	123.579	-2042.215	505.537	132.153	-1843.506	510.880	39.884	-1828.896	571.986	973.742
-1636.215	689.332	962.142	-1645.959	441.021	957.460	-1775.713	562.868	451.253	-1793.175	466.480	459.411	-2102.443	554.846	129.738	-2039.694	504.515	137.203	-1843.354	510.952	39.762	-1815.112	571.091	976.527
-1623.207	688.922	965.879	-1631.653	440.981	959.014	-1771.269	562.794	455.350	-1788.033	466.283	463.471	-2098.226	553.834	135.930	-2036.169	503.691	141.846	-1843.128	510.897	39.810	-1801.245	570.222	979.351
-1610.184	688.538	969.628	-1617.316	440.803	960.706	-1766.558	562.734	459.505	-1782.589	465.881	467.624	-2093.573	552.957	142.482	-2032.274	502.690	146.943	-1843.299	510.294	39.892	-1787.266	569.366	982.384
-1597.153	688.182	973.367	-1602.693	440.928	962.252	-1760.933	562.341	463.694	-1776.747	465.422	472.170	-2088.364	551.976	149.187	-2027.840	501.683	152.042	-1843.090	510.245	39.722	-1773.354	568.499	985.549
-1584.119	687.859	977.069	-1588.233	440.928	964.197	-1755.205	562.001	468.195	-1770.928	464.754	476.530	-2082.705	550.998	156.128	-2022.939	500.610	157.212	-1842.885	510.134	39.553	-1759.310	567.651	988.844
-1571.090	687.572	980.712	-1573.546	441.010	966.042	-1748.615	561.327	472.478	-1764.248	464.073	481.238	-2076.437	549.974	163.186	-2017.340	499.492	162.194	-1842.617	510.022	39.197	-1745.129	566.869	992.271
-1558.071	687.324	984.271	-1558.735	441.355	967.928	-1741.930	560.787	477.047	-1756.633	463.407	486.214	-2069.527	548.954	170.242	-2011.544	498.223	167.636	-1842.255	509.866	38.841	-1730.853	566.055	995.716
-1545.069	687.118	987.720	-1544.639	442.318	969.537	-1734.712	559.763	481.173	-1749.054	462.708	490.646	-2062.094	547.912	177.251	-2005.143	496.887	172.720	-1842.024	509.926	38.283	-1716.572	565.246	999.205
-1532.090	686.958	991.037	-1529.789	442.709	971.551	-1726.198	558.498	485.336	-1741.921	462.021	495.364	-2054.402	546.675	184.562	-1998.181	495.535	177.703	-1841.619	509.660	37.674	-1702.328	564.480	1002.820
-1519.141	686.846	994.197	-1514.826	443.215	973.569	-1717.795	557.549	489.285	-1733.571	461.358	499.847	-2046.018	545.475	191.667	-1991.002	493.943	182.722	-1841.205	509.414	36.862	-1687.959	563.651	1006.358
-1506.229	686.787	997.175	-1499.954	443.672	975.892	-1708.979	556.847	492.983	-1725.031	460.737	504.269	-2038.169	543.782	199.992	-1983.421	491.962	187.821	-1840.405	509.267	35.770	-1673.512	562.847	1009.821
-1493.359	686.783	999.946	-1484.971	444.315	977.829	-1699.716	556.047	496.554	-1715.917	459.931	508.658	-2029.260	542.306	207.343	-1975.385	490.347	192.872	-1839.556	508.970	34.642	-1658.388	562.667	1012.712
-1480.538	686.838	1002.488	-1470.108	444.866	980.086	-1690.195	555.458	500.123	-1706.318	459.325	512.729	-2020.054	540.670	214.769	-1966.998	488.548	197.931	-1838.542	508.569	33.470	-1644.018	561.712	1016.006
-1467.772	686.954	1004.775	-1455.234	445.524	982.049	-1680.190	554.930	503.351	-1696.232	458.704	516.498	-2010.470	539.079	222.199	-1958.650	486.820	203.161	-1837.268	507.976	32.437	-1629.583	560.765	1019.123
-1454.861	686.861	1007.340	-1440.464	446.245	984.256	-1669.558	554.374	506.286	-1685.543	458.034	520.170	-2000.722	537.565	229.658	-1949.943	485.193	208.357	-1835.455	507.289	31.025	-1615.261	559.781	1022.098
-1442.023	686.962	1008.838	-1425.792	446.905	986.138	-1658.685	554.020	509.091	-1674.517	457.528	523.335	-1990.909	535.986	237.265	-1941.089	483.606	213.674	-1833.855	506.203	29.521	-1601.020	558.868	1024.856
-1429.339	686.947	1010.763	-1411.348	447.576	988.167	-1647.274	553.882	511.471	-1662.904	456.896	526.346	-1981.127	534.702	244.598	-1932.820	482.153	219.003	-1832.757	505.681	26.924	-1586.872	557.936	1027.344
-1414.731	687.150	1011.822	-1396.850	448.269	990.027	-1635.153	553.773	513.365	-1650.647	456.479	528.815	-1971.114	533.304	252.425	-1924.007	480.795	224.998	-1830.854	504.714	24.614	-1572.895	556.966	1029.614
-1402.141	686.977	1013.621	-1382.656	448.841	992.031	-1622.663	553.854	514.908	-1637.638	455.950	530.945	-1961.017	532.129	260.074	-1915.164	479.678	230.977	-1829.275	503.732	22.079	-1558.977	555.991	1031.601
-1389.346	686.942	1014.594	-1368.371	449.456	993.693	-1609.609	554.044	516.134	-1624.015	455.541	532.341	-1951.116	530.948	267.635	-1906.223	478.699	237.066	-1827.502	502.832	19.526	-1545.264	555.078	1033.237
-1376.642	686.869	1015.807	-1354.624	449.814	995.694	-1596.101	554.138	516.977	-1609.878	455.014	533.440	-1941.293	530.201	274.949	-1897.402	477.811	243.425	-1825.290	501.989	19.057	-1531.734	554.129	1034.690
-1363.921	686.775	1016.865	-1340.725	450.334	997.042	-1581.564	554.130	517.354	-1594.873	454.581	533.770	-1931.832	529.582	282.105	-1888.627	477.057	249.878	-1822.016	500.607	23.213	-1518.323	553.188	1035.668
-1351.074	686.678	1017.372	-1326.984	450.683	998.521	-1566.915	554.162	517.443	-1579.338	454.027	533.556	-1922.250	529.198	289.340	-1879.586	476.429	256.138	-1817.186	498.657	30.401	-1505.243	552.346	1036.544
-1338.657	686.570	1017.689	-1313.744	450.801	1000.119	-1551.359	553.905	516.899	-1563.553	453.490	533.027	-1913.088	528.842	296.797	-1869.946	476.262	262.812	-1810.945	496.554	37.974	-1492.002	551.660	1036.944
-1326.367	686.428	1017.923	-1300.345	450.954	1001.140	-1535.426	553.645	516.192	-1546.887	453.107	531.804	-1903.570	528.749	304.305	-1860.578	475.736	269.958	-1803.894	494.250	45.322	-1479.145	550.953	1037.128
-1313.875	686.203	1018.089	-1287.057	450.997	1001.983	-1518.916	553.285	514.726	-1530.015	452.659	530.263	-1893.801	528.641	311.872	-1851.027	475.339	277.470	-1796.585	491.986	52.209	-1466.385	550.433	1036.995
-1301.514	685.970	1018.844	-1274.135	450.998	1002.844	-1502.144	553.034	512.975	-1512.767	452.232	528.530	-1883.467	528.597	319.381	-1840.861	474.911	284.889	-1788.935	489.686	58.822	-1453.807	549.928	1036.520
-1289.322	685.798	1019.103	-1261.086	450.834	1003.322	-1484.969	552.708	510.720	-1495.011	451.964	526.300	-1872.547	528.450	326.914	-1830.217	474.510	292.220	-1780.683	487.395	65.517	-1441.266	549.422	1035.803
-1277.551	685.547	1018.987	-1248.200	450.587	1003.629	-1467.499	552.587	508.102	-1477.032	451.664	523.836	-1861.045	528.060	334.427	-1818.826	473.862	299.451	-1771.976	485.014	72.556	-1428.999	548.901	1034.867
-1265.258	685.458	1017.748	-1235.333	450.379	1003.471	-1450.841	552.841	505.671	-1459.071	451.342	521.445	-1848.896	527.675	341.860	-1806.812	473.141	306.459	-1762.865	482.719	79.496	-1416.590	548.531	1033.533
-1253.400	685.344	1017.879	-1222.504	450.121	1003.253	-1433.330	552.876	502.937	-1440.679	451.071	518.612	-1835.791	527.089	349.009	-1794.170	472.318	313.410	-1753.546	480.473	86.308	-1404.443	548.020	1032.063
-1241.217	685.384	1017.143	-1209.598	449.912	1002.679	-1415.399	552.809	499.882	-1422.621	450.693	515.959	-1822.139	526.253	356.308	-1780.677	471.430	319.926	-1743.630	478.266	92.243	-1392.372	547.590	1030.386
-1229.702	685.252	1016.088	-1196.948	449.629	1002.073	-1396.576	552.461	496.611	-1404.273	450.205	512.878	-1807.701	525.454	362.886	-1766.536	470.514	326.057	-1733.526	476.320	98.156	-1380.329	547.187	1028.522
-1217.715	685.088	1015.771	-1184.139	449.204	1000.655	-1378.446	552.349	493.424	-1386.028	449.682	509.834	-1792.466	524.439	369.615	-1751.431	469.444	331.900	-1722.827	474.462	103.360	-1368.457	546.636	1026.503
-1206.118	685.538	1014.077	-1171.470	449.422	999.996	-1360.352	552.362	490.218	-1367.765	449.053	506.725	-1776.656	523.358	375.440	-1736.124	468.345	337.100	-1711.709	472.762	108.217	-1356.433	546.183	1024.174
-1193.866	685.131	1013.130	-1158.791	449.232	998.448	-1341.771	552.140	486.821	-1349.111	448.315	503.481	-1760.282	522.282	380.947	-1720.359	467.198	341.915	-1699.910	471.125	112.694	-1344.599	545.504	1021.762
-1183.135	685.367	1012.309	-1146.215	448.990	996.993	-1322.825	551.603	483.305	-1330.454	447.655	500.271	-1743.183	521.008	385.932	-1703.803	465.985	346.005	-1687.388	469.499	116.772	-1332.708	544.743	1019.230
-1172.310	685.683	1010.074	-1133.630	448.952	995.287	-1303.641	551.075	479.576	-1311.700	446.838	496.977	-1726.191	519.163	390.762	-1687.139	464.678	349.860	-1674.049	467.873	120.332	-1320.792	543.914	1016.419
-1160.808	685.991	1008.423	-1120.994	448.700	993.337	-1284.552	550.606	475.893	-1293.042	445.871	493.680	-1708.109	517.800	394.567	-1669.948	463.281	353.150	-1659.907	466.168	123.612	-1309.294	542.599	1013.733
-1149.094	686.195	1006.699	-1108.364	448.790	991.255	-1265.318	550.159	471.942	-1274.170	444.977	490.278	-1689.750	516.420	397.798	-1652.337	461.772	356.004	-1644.865	464.474	126.644	-1297.307	541.586	1010.535
-1137.867	686.849	1004.713	-1095.960	448.584	989.237	-1245.975	549.555	467.968	-1255.120	444.060	486.758	-1671.405	514.910	400.655	-1634.424	460.309	358.443	-1628.688	462.582	129.263	-1285.369	540.513	1007.463
-1125.839	686.750	1003.219	-1083.541	448.537	987.060	-1226.120	548.789	463.866	-1235.872	443.165	483.255	-1653.001	513.306	402.963	-1616.385	458.541	360.563	-1611.434	460.896	131.118	-1273.167	539.657	1003.793
-1114.616	687.340	1001.174	-1070.949	449.101	984.133	-1205.989	547.868	459.552	-1216.455	442.360	479.632	-1634.340	511.737	404.841	-1597.440	457.124	362.150	-1593.206	458.935	133.075	-1261.143	538.517	1000.486
-1102.788	687.459	998.941	-1058.757	449.037	981.264	-1186.396	547.276	455.603	-1196.613	441.547	475.936	-1615.230	510.212	406.125	-1578.261	455.569	363.582	-1574.135	457.069	134.410	-1249.530	536.972	997.222
-1091.069	687.811	996.485	-1045.713	449.573	978.666	-1168.218	547.666	451.730	-1176.526	440.754	472.112	-1595.834	508.655	406.924	-1558.683	454.042	364.319	-1554.208	455.099	135.531	-1237.513	535.732	993.708
-1079.242	688.101	994.134	-1033.350	449.718	975.781	-1147.812	547.018	447.627	-1156.156	439.998	468.290	-1576.456	507.002	407.670	-1538.657	452.596	364.646	-1533.579	452.991	136.307	-1225.277	534.836	990.148
-1067.244	688.223	991.588	-1021.250	449.880	972.904	-1127.101	546.290	443.630	-1135.510	439.322	464.356	-1556.469	505.538	407.424	-1518.215	451.104	364.750	-1512.296	451.071	136.485	-1213.364	533.760	986.412
-1055.184	688.881	988.658	-1009.522	449.453	970.185	-1106.693	545.774	439.854	-1114.526	438.630	460.644	-1536.138	503.900	406.945	-1497.486	449.576	364.508	-1490.309	448.940	136.517	-1201.828	532.490	983.087
-1043.018	688.705	985.622	-997.598	449.323	966.571	-1087.652	544.833	437.066	-1093.292	438.049	456.998	-1515.446	502.367	406.052	-1476.173	448.109	363.678	-1467.698	446.913	136.064	-1190.212	531.575	979.660
-1031.186	688.470	982.431	-985.797	449.284	963.564	-1066.179	544.262	433.328	-1071.957	437.426	453.413	-1494.135	500.472	404.714	-1454.558	446.708	362.551	-1444.526	444.764	135.289	-1178.583	530.955	975.980
-1019.467	688.137	979.484	-973.994	449.277	960.563	-1045.010	543.856	430.097	-1050.298	437.151	449.967	-1472.933	499.024	402.860	-1432.716	445.281	361.163	-1420.761	442.644	134.230	-1167.210	530.277	972.556
-1008.310	688.327	975.645	-962.344	448.970	957.328	-1023.610	543.401	427.426	-1028.379	436.755	446.932	-1451.696	497.699	400.645	-1410.545	443.881	359.432	-1396.362	440.391	132.781	-1155.746	530.070	968.758
-996.748	688.094	972.615	-950.657	448.563	954.389	-1001.343	543.021	424.663	-1006.156	436.433	444.203	-1430.061	496.196	398.268	-1387.993	442.473	357.328	-1371.218	438.029	131.168	-1144.637	529.389	965.432
-985.029	687.817	969.656	-938.991	447.986	951.064	-979.528	542.764	422.898	-983.850	436.141	441.982	-1408.124	494.893	395.221	-1365.227	441.140	354.894	-1345.610	435.924	129.352	-1133.429	528.947	961.963
-973.648	687.879	966.425	-927.587	447.349	948.340	-957.212	542.553	421.110	-961.354	435.863	439.915	-1385.991	493.433	391.813	-1342.074	439.877	352.049	-1319.329	433.698	127.042	-1122.132	528.617	958.268
-961.995	687.995	963.492	-916.121	446.474	945.506	-935.282	542.422	420.142	-938.829	435.518	438.265	-1363.803	492.335	387.795	-1318.690	438.625	348.865	-1292.742	431.542	124.601	-1110.864	528.192	954.779
-950.027	687.921	960.965	-904.588	445.371	943.086	-912.196	541.763	419.185	-916.143	435.290	436.954	-1341.514	491.199	383.663	-1295.472	437.409	345.687	-1265.720	429.410	121.858	-1099.390	527.822	951.302
-938.239	688.062	958.242	-893.152	444.316	940.664	-889.870	541.806	418.788	-893.302	434.898	436.118	-1318.949	490.162	379.034	-1271.467	436.561	341.767	-1238.029	427.274	119.023	-1087.848	527.495	947.954
-926.396	688.213	955.586	-881.600	443.129	938.441	-867.713	541.527	418.813	-870.666	434.566	435.764	-1296.407	489.115	373.954	-1248.092	435.615	337.808	-1209.944	425.181	116.073	-1076.274	527.270	944.993
-914.372	687.989	953.491	-869.459	441.922	936.065	-845.400	541.386	419.119	-848.088	434.228	435.793	-1273.650	488.152	368.658	-1224.314	434.753	333.396	-1181.548	423.200	112.822	-1064.541	527.014	942.397
-902.319	687.977	951.327	-857.920	440.906	934.783	-823.101	541.159	419.878	-825.545	433.944	436.395	-1250.797	487.159	362.948	-1200.225	433.727	328.990	-1152.892	421.402	109.530	-1052.634	526.858	940.169
-890.084	687.867	949.070	-845.894	439.956	933.289	-800.828	540.811	420.908	-803.375	433.615	437.284	-1227.834	486.082	356.993	-1176.238	432.804	324.283	-1123.749	419.787	106.023	-1040.602	526.635	938.387
-877.620	687.680	947.054	-833.761	439.306	931.850	-778.668	540.427	422.252	-781.137	433.356	438.791	-1204.923	485.269	350.691	-1152.513	431.437	319.455	-1094.133	418.199	102.810	-1028.335	526.399	936.982
-865.089	687.422	945.510	-821.439	438.741	930.736	-757.035	539.925	424.063	-759.208	433.078	440.694	-1181.810	484.526	343.995	-1128.433	430.581	314.302	-1064.164	416.894	99.550	-1015.868	526.165	936.075
-853.015	687.623	943.628	-808.962	438.200	930.013	-734.922	539.745	425.941	-737.482	432.751	442.880	-1158.515	483.630	337.135	-1103.922	429.695	308.940	-1033.788	415.791	96.327	-1003.356	525.914	935.641
-839.912	687.168	942.270	-796.600	437.893	929.415	-711.306	540.616	427.739	-715.933	432.504	445.472	-1135.201	482.694	330.197	-1079.499	428.921	303.292	-1003.129	414.864	93.149	-990.564	525.626	935.603
-827.601	687.227	940.895	-783.195	437.366	929.127	-690.352	540.209	430.350	-694.768	432.162	448.599	-1111.681	481.844	322.833	-1055.087	428.236	297.822	-972.193	414.202	90.039	-977.717	525.189	935.855
-815.009	687.499	939.925	-770.406	437.475	928.583	-669.488	539.959	433.902	-673.669	431.822	451.779	-1088.032	481.019	315.289	-1030.429	427.602	291.863	-941.060	413.659	87.043	-964.640	524.821	936.360
-801.550	687.221	938.693	-757.237	437.452	928.751	-648.893	539.420	437.377	-653.017	431.477	455.449	-1064.326	480.365	307.589	-1005.885	427.010	285.961	-909.731	413.190	84.377	-951.343	524.380	937.029
-788.393	687.262	938.205	-743.966	437.730	929.230	-628.491	539.041	441.283	-632.602	431.100	459.392	-1040.352	479.516	300.073	-980.788	426.527	279.829	-878.128	412.911	81.728	-937.991	523.820	937.853
-775.457	687.774	937.365	-730.593	437.972	929.848	-608.333	538.346	445.089	-612.644	430.609	463.698	-1016.220	478.881	292.099	-955.882	426.040	273.712	-846.423	412.718	79.277	-924.437	523.274	938.898
-761.069	687.131	937.674	-716.984	438.296	931.008	-588.624	537.936	449.539	-592.959	430.227	467.985	-991.865	478.351	284.030	-930.742	425.734	267.541	-814.623	412.468	77.252	-910.744	522.718	940.181
-747.667	687.307	937.936	-703.349	438.788	931.777	-569.340	537.349	454.058	-573.724	429.867	472.535	-967.386	478.029	275.976	-905.605	425.454	261.366	-782.717	412.360	75.543	-897.374	522.188	941.828
-734.131	687.699	937.710	-689.539	439.196	933.938	-550.194	536.789	458.799	-554.692	429.486	477.218	-942.020	477.484	267.386	-880.029	425.274	254.878	-750.664	412.384	74.019	-883.682	521.807	943.697
-719.890	687.667	938.119	-675.926	439.795	935.427	-531.460	536.335	463.493	-536.109	429.076	481.931	-917.138	477.372	259.186	-854.507	425.413	248.432	-718.534	412.298	72.604	-869.478	521.671	945.490
-705.801	687.823	938.675	-661.826	439.795	937.357	-512.543	535.806	468.543	-517.923	428.576	486.762	-891.797	477.569	250.530	-828.805	425.790	242.248	-686.465	412.385	71.799	-855.563	521.413	947.810
-691.082	687.601	939.430	-648.144	440.222	939.640	-494.383	535.254	473.622	-500.283	428.115	491.619	-865.927	477.918	242.057	-803.035	426.005	236.084	-654.311	412.278	70.989	-841.191	521.310	950.244
-676.298	687.286	940.670	-633.840	440.133	942.715	-476.515	534.696	478.694	-483.134	427.678	496.593	-839.882	478.571	233.571	-777.048	426.279	229.773	-622.313	412.251	70.723	-826.822	521.311	952.807
-661.706	687.277	941.769	-619.739	440.104	945.599	-458.945	534.196	483.739	-466.161	427.240	501.394	-813.568	479.129	225.298	-750.962	426.629	223.660	-589.676	411.950	70.975	-812.360	521.342	955.745
-646.742	686.951	943.216	-605.490	440.080	948.559	-441.739	533.643	488.978	-449.526	426.708	506.091	-787.243	479.471	216.947	-724.661	426.947	217.623	-558.017	412.016	71.043	-797.635	521.506	958.766
-631.414	686.550	944.900	-591.145	439.849	951.928	-424.643	533.000	494.044	-433.341	426.130	510.669	-760.653	479.978	208.830	-698.146	427.413	211.484	-526.232	412.228	71.454	-783.819	521.123	962.264
-616.362	686.459	946.652	-576.828	439.783	954.974	-408.109	532.439	499.001	-417.483	425.513	514.967	-732.561	481.317	199.642	-671.415	427.985	205.448	-494.628	412.743	72.306	-767.840	522.031	965.302
-600.909	686.028	948.641	-562.448	439.497	958.635	-391.369	531.798	504.123	-401.712	425.022	518.960	-705.546	481.941	191.554	-644.792	428.591	199.684	-463.010	413.538	73.420	-751.789	522.403	968.296
-584.904	685.256	951.127	-547.957	439.322	961.998	-375.241	531.080	508.723	-386.483	424.559	522.749	-678.676	482.506	184.053	-618.113	429.129	194.043	-431.549	414.509	75.095	-737.278	522.937	972.202
-569.464	685.202	952.904	-533.395	439.171	965.610	-359.263	530.213	513.250	-371.450	424.084	526.303	-651.563	483.035	176.451	-591.329	429.734	188.528	-400.210	415.683	77.100	-722.171	523.313	975.947
-553.430	684.521	955.579	-518.757	438.927	969.623	-343.689	529.300	517.521	-356.999	423.579	529.689	-624.371	483.562	168.958	-564.470	430.251	183.143	-369.039	417.215	79.344	-707.128	523.660	979.498
-537.347	683.941	958.170	-504.286	438.883	973.104	-328.319	528.365	521.267	-342.764	423.082	532.829	-597.321	484.004	161.744	-536.850	431.602	177.342	-338.074	418.867	82.050	-691.402	524.514	983.278
-521.348	683.457	960.849	-489.490	438.621	976.450	-313.512	527.668	524.722	-328.804	422.795	535.673	-569.881	484.494	154.674	-510.260	432.151	172.564	-307.575	420.589	85.336	-676.416	524.649	986.944
-505.424	683.147	963.299	-474.970	438.508	980.215	-299.333	526.816	527.839	-315.223	422.493	538.200	-542.436	485.036	147.788	-484.558	431.982	167.811	-277.370	422.425	88.779	-660.369	525.659	990.582
-489.020	682.345	966.091	-460.289	438.474	983.839	-285.348	525.916	530.657	-301.939	422.125	540.573	-515.231	485.389	141.325	-457.745	432.611	162.988	-247.675	424.335	92.789	-645.403	525.776	994.251
-472.780	681.734	968.624	-445.654	438.349	987.216	-271.498	525.192	533.158	-288.911	421.858	542.550	-488.015	485.893	135.032	-431.331	433.182	158.619	-218.275	426.276	96.927	-629.175	526.981	997.563
-456.534	681.099	971.376	-431.056	438.390	990.632	-258.416	524.351	535.190	-276.192	421.486	544.271	-460.448	486.583	128.817	-404.633	433.966	154.273	-189.396	427.929	101.424	-613.609	527.675	1000.834
-440.483	680.593	973.747	-416.405	438.469	993.952	-245.349	523.563	537.049	-263.740	421.290	545.640	-432.529	488.081	122.570	-378.237	434.643	150.172	-160.973	429.631	106.134	-597.679	528.244	1004.151
-424.464	679.693	976.261	-401.752	438.454	996.993	-232.970	522.783	538.163	-251.278	420.827	546.506	-405.915	487.998	117.690	-351.796	435.448	146.474	-133.113	431.296	110.980	-582.066	529.004	1007.148
-408.129	678.797	979.043	-387.187	438.592	999.536	-220.549	522.027	539.502	-239.120	420.390	547.121	-378.779	488.566	112.794	-325.940	436.090	143.128	-105.740	432.991	115.939	-566.605	529.643	1010.130
-392.081	678.092	981.320	-372.409	438.502	1002.201	-208.487	521.138	540.213	-227.243	419.946	547.481	-352.198	489.094	108.405	-299.738	436.954	140.137	-78.888	434.578	121.299	-550.972	530.275	1012.708
-376.218	677.448	983.437	-357.627	438.514	1004.683	-196.445	520.282	540.863	-215.516	419.518	547.515	-324.539	490.846	103.876	-274.250	437.718	137.451	-52.730	435.966	126.820	-535.502	530.962	1015.367
-360.670	677.067	985.049	-342.972	438.386	1006.725	-184.523	519.492	541.161	-203.902	418.982	547.221	-298.312	491.602	100.321	-248.863	438.621	134.891	-27.235	437.252	132.488	-520.218	531.605	1017.602
-345.088	676.534	986.863	-328.433	438.391	1008.554	-172.795	518.757	541.318	-192.665	418.574	546.752	-272.356	492.537	97.180	-224.086	439.871	133.581	-2.317	438.672	138.357	-504.730	532.367	1019.906
-329.678	675.990	988.457	-313.628	438.162	1010.571	-161.215	518.085	540.906	-181.418	418.204	546.046	-246.731	493.530	94.331	-199.503	440.532	131.712	21.677	439.590	144.231	-489.595	533.063	1021.920
-314.489	675.658	989.741	-298.852	437.955	1012.069	-149.571	517.478	540.420	-170.434	417.893	545.165	-221.709	494.564	91.930	-176.894	441.052	131.376	45.010	440.286	150.040	-474.538	533.645	1023.790
-299.304	675.328	990.970	-284.266	437.829	1013.276	-137.958	516.872	539.749	-159.418	417.653	544.195	-197.083	495.742	89.904	-153.767	441.881	130.375	67.687	440.811	155.419	-459.503	534.317	1025.279
-284.527	675.135	991.983	-269.796	437.670	1014.286	-126.378	516.416	538.908	-148.547	417.557	542.995	-173.388	496.706	88.514	-131.168	442.638	129.735	89.417	441.056	160.877	-444.665	534.824	1026.727
-269.699	674.833	993.199	-255.060	437.419	1015.620	-114.638	515.944	537.915	-137.712	417.575	541.790	-150.438	497.696	87.221	-109.335	443.372	129.314	110.408	441.136	166.093	-429.826	535.258	1027.835
-254.866	674.481	994.387	-240.581	437.121	1016.436	-102.770	515.546	536.846	-126.709	417.674	540.499	-128.124	498.529	86.437	-87.459	444.339	128.514	130.382	440.798	171.048	-415.269	535.624	1028.550
-240.227	674.324	995.417	-225.994	436.764	1017.433	-90.878	515.292	535.613	-115.625	417.928	539.147	-106.604	499.252	85.757	-66.723	445.272	128.541	149.791	440.580	175.776	-400.688	535.873	1029.244
-225.665	674.246	996.559	-211.687	436.482	1017.844	-79.142	515.219	534.272	-104.495	418.287	537.824	-86.254	499.655	85.275	-47.237	445.694	128.595	168.226	440.327	180.161	-386.156	536.014	1029.734
-211.008	673.990	997.840	-197.280	436.009	1018.416	-67.529	515.206	532.938	-93.166	418.752	536.623	-66.583	500.165	84.832	-28.449	445.846	128.879	185.929	440.028	184.378	-371.927	536.180	1029.716
-196.465	673.829	998.619	-183.066	435.574	1018.690	-55.656	515.363	532.022	-81.701	419.290	535.431	-47.832	500.356	84.512	-10.531	446.036	129.202	202.882	439.782	187.983	-357.662	536.046	1029.904
-181.960	673.708	999.883	-168.962	435.025	1019.070	-43.738	515.681	531.193	-69.990	419.970	534.299	-29.770	500.595	83.976	6.558	446.096	129.492	219.199	439.507	191.251	-343.587	536.029	1029.463
-167.754	673.648	1000.162	-155.037	434.594	1018.869	-32.031	516.219	530.281	-58.166	420.735	533.223	-13.060	500.632	83.684	22.928	446.181	129.699	234.889	439.365	193.891	-329.665	535.714	1028.943
-153.183	673.277	1000.827	-141.128	433.990	1018.937	-20.228	516.947	529.565	-46.096	421.349	532.294	2.890	500.846	83.232	38.521	446.310	129.891	249.770	439.192	195.874	-315.782	535.382	1028.393
-138.851	672.985	1001.451	-127.473	433.583	1018.739	-8.340	517.640	529.123	-33.771	421.962	531.346	18.173	501.210	82.689	53.245	446.439	129.971	264.025	439.059	197.235	-301.892	535.080	1027.491
-124.641	672.897	1002.061	-113.872	433.210	1018.296	3.688	518.410	528.898	-21.407	422.592	530.444	32.505	501.770	82.005	66.983	446.886	129.738	277.588	438.951	197.818	-288.062	534.650	1026.577
-110.366	672.573	1001.779	-100.197	432.736	1017.972	15.745	519.358	528.581	-8.517	423.179	529.692	45.860	502.432	81.327	80.209	447.467	129.210	290.768	438.823	197.683	-274.211	534.306	1025.595
-96.072	672.436	1001.544	-86.728	432.494	1017.315	27.833	520.284	527.999	4.545	423.645	528.954	58.693	503.346	80.220	92.836	448.117	128.371	303.167	438.919	196.879	-260.730	534.093	1024.139
-81.912	672.138	1000.949	-73.481	432.333	1016.548	40.145	521.319	527.393	17.848	424.106	528.227	70.501	504.234	79.113	104.740	448.915	127.094	315.025	439.093	195.351	-247.058	533.800	1022.727
-67.599	671.968	1000.277	-60.259	432.044	1015.630	52.481	522.174	526.602	31.430	424.511	527.533	81.528	505.210	77.798	115.814	449.824	125.595	326.362	439.572	193.219	-233.545	533.583	1021.210
-53.885	672.267	998.876	-47.155	431.676	1014.471	65.157	523.037	525.781	45.314	424.814	526.896	91.770	506.081	76.360	126.550	450.713	123.855	337.157	440.466	190.300	-219.935	533.490	1019.554
-39.745	671.963	997.688	-33.987	431.268	1013.399	77.894	523.857	524.772	59.293	425.095	526.107	101.380	506.843	74.582	136.701	451.616	121.898	347.604	441.650	186.780	-206.545	533.433	1017.664
-24.740	671.059	996.133	-21.053	430.877	1011.970	90.869	524.590	523.717	73.427	425.422	525.110	110.201	507.499	72.822	146.068	452.414	119.727	357.761	443.040	182.646	-193.203	533.462	1015.586
-11.030	671.281	994.576	-8.220	430.450	1010.432	103.819	525.039	522.603	87.549	425.630	524.154	118.297	508.212	71.022	154.942	453.337	117.487	367.565	444.948	177.954	-179.875	533.554	1013.323
3.238	670.941	991.734	4.543	429.907	1008.824	116.932	525.375	521.205	101.762	425.796	522.914	125.933	508.873	69.174	163.554	454.287	114.874	376.839	446.829	172.979	-166.529	533.788	1010.949
16.940	670.890	989.679	17.268	429.371	1007.200	130.365	525.463	520.091	116.076	425.946	521.536	133.009	509.595	67.162	171.520	455.227	112.236	385.535	448.987	167.442	-153.147	534.204	1008.365
31.500	670.178	986.662	29.972	428.764	1005.549	144.124	525.297	518.861	130.121	426.127	519.925	139.427	510.575	66.362	178.485	456.294	110.500	393.864	451.220	161.389	-139.809	534.738	1005.567
46.303	669.012	984.198	42.500	428.085	1003.710	157.799	524.693	517.211	144.003	426.384	518.122	144.714	511.385	66.246	185.383	457.388	108.389	401.012	454.208	154.110	-126.669	535.280	1002.807
60.126	668.547	980.399	55.098	427.250	1001.931	171.640	524.141	515.373	157.462	426.604	516.239	149.224	512.464	67.650	191.844	458.623	105.806	407.391	457.671	145.134	-113.523	535.935	999.465
74.594	667.574	977.256	67.504	426.478	999.871	185.694	523.469	513.384	170.731	426.630	514.063	153.515	514.300	68.291	199.299	460.288	102.108	413.028	461.183	135.745	-99.146	536.940	995.939
88.660	666.845	973.625	79.917	425.632	997.948	199.891	523.184	511.389	183.732	426.466	511.980	156.904	515.745	68.426	204.509	461.554	100.147	419.177	463.911	125.185	-86.613	537.582	992.902
102.721	666.003	970.182	92.212	424.776	995.730	213.845	523.416	508.980	196.682	426.357	509.718	159.482	516.546	69.141	208.153	462.501	99.022	425.360	466.352	114.150	-73.523	538.369	989.202
117.335	664.490	966.589	104.219	423.751	993.381	227.893	524.338	506.503	209.679	426.379	507.379	161.289	516.628	69.800	212.069	463.379	97.713	431.069	468.563	103.477	-60.902	538.933	985.705
132.162	662.628	962.778	116.176	422.764	991.135	241.690	525.839	503.849	223.204	426.455	505.221	162.898	516.268	70.836	215.972	463.707	96.960	435.371	470.432	94.367	-48.129	539.654	981.753
145.585	661.792	958.122	127.784	421.762	988.636	255.545	527.097	501.437	237.463	426.569	503.430	164.542	515.961	72.476	218.775	463.413	97.118	438.168	472.091	87.096	-35.820	540.255	978.083
159.413	660.501	953.713	139.402	420.649	986.188	269.561	528.199	499.613	252.729	426.785	501.941	166.307	515.746	74.203	221.132	463.502	97.920	440.348	473.115	81.348	-23.728	540.841	974.162
173.277	658.834	949.682	150.646	419.436	983.839	283.656	528.613	498.566	269.031	426.925	501.201	168.158	515.486	76.233	223.304	464.319	98.887	442.359	473.726	76.090	-11.528	541.303	970.225
186.677	657.303	945.761	162.213	417.875	981.582	297.919	528.634	498.352	286.038	427.445	500.736	170.252	515.330	78.051	226.882	464.310	99.150	444.442	474.309	70.308	0.541	541.813	966.174
200.136	655.612	941.744	173.860	416.195	979.378	311.893	528.190	498.438	303.111	428.328	500.463	172.257	515.146	80.111	230.334	464.245	99.573	447.402	475.900	64.068	12.706	542.343	961.942
213.205	654.296	937.854	185.211	414.459	977.217	325.614	527.435	498.573	319.376	429.227	499.698	174.186	515.606	81.547	233.887	464.052	99.953	451.034	477.289	58.311	24.747	542.704	958.244
226.090	653.112	934.183	197.197	412.402	975.401	338.836	526.559	498.368	333.742	429.463	498.430	173.693	515.794	83.192	235.224	464.084	100.474	453.385	477.041	54.425	37.432	543.526	953.829
238.841	652.083	930.870	208.874	410.627	973.623	351.296	525.633	497.370	346.288	429.199	496.322	174.318	517.048	83.588	236.869	465.263	100.572	453.613	476.596	53.236	48.409	543.915	949.989
251.498	651.269	927.818	220.829	408.847	971.543	363.180	524.717	495.473	357.624	428.692	493.784	174.806	517.872	83.828	237.506	466.647	100.935	452.929	476.345	52.769	61.280	544.708	946.181
264.196	650.563	924.823	233.123	407.183	969.424	374.768	523.941	492.882	367.820	428.256	490.494	175.332	518.500	84.247	238.301	467.718	101.256	453.502	476.282	50.838	73.767	545.227	942.829
276.577	650.350	922.374	245.452	405.736	967.092	385.681	523.537	489.320	376.952	427.760	486.463	175.909	519.237	84.517	239.020	468.017	101.346	455.387	476.834	48.477	86.341	545.597	939.507
289.162	650.110	920.723	258.160	404.414	964.627	395.896	523.216	484.999	384.974	427.227	481.887	176.231	519.737	84.708	239.802	468.530	101.202	456.164	477.168	47.335	99.029	545.511	936.852
301.756	649.841	918.529	271.222	403.248	962.158	405.591	523.078	480.601	392.486	426.646	477.363	176.401	519.864	84.767	240.344	468.768	101.209	455.611	477.222	46.787	111.773	545.003	934.661
314.411	649.585	917.409	284.083	402.407	960.029	414.364	522.992	476.184	399.553	426.221	472.955	176.594	519.772	85.005	240.749	468.865	101.328	455.994	477.271	45.973	124.602	544.066	933.005
327.071	649.327	916.027	297.219	401.869	958.007	422.568	523.159	472.000	406.326	425.903	468.926	176.732	519.761	85.207	241.295	468.994	101.415	456.540	477.454	44.950	137.330	542.696	932.114
339.726	649.057	914.664	310.665	401.374	956.269	430.023	523.666	467.692	413.188	425.734	465.188	176.865	519.731	85.438	241.687	468.889	101.651	456.547	477.313	44.592	150.212	541.319	931.265
352.320	648.834	913.432	324.140	401.205	954.875	436.821	524.107	463.294	420.029	425.729	462.023	177.046	520.011	85.614	242.285	469.002	101.968	456.648	477.288	44.153	163.166	539.852	930.791
364.849	648.793	912.241	337.813	401.177	953.512	443.166	524.553	459.330	427.015	425.774	459.006	177.356	520.374	85.841	242.936	469.172	102.204	457.074	477.432	43.406	175.990	538.321	930.548
377.369	648.943	910.934	351.810	401.365	952.957	449.013	525.012	455.755	433.829	425.872	456.055	177.615	520.734	85.974	243.671	469.221	102.601	457.273	477.572	42.841	188.932	536.973	930.482
389.974	648.895	910.137	365.493	401.494	951.783	454.609	525.432	452.685	440.627	425.822	453.312	177.829	520.948	86.202	244.326	469.261	102.795	457.344	477.540	42.459	201.855	535.597	930.640
402.422	648.986	909.495	379.062	401.529	951.084	459.695	525.692	450.088	447.180	425.706	450.701	178.005	521.026	86.519	244.860	469.243	103.161	457.473	477.461	42.146	214.997	534.336	931.151
415.248	648.929	909.205	392.721	401.561	950.559	464.735	525.690	447.993	453.624	425.584	448.106	178.104	520.814	87.130	245.512	469.623	103.652	457.535	477.358	41.946	228.043	533.191	932.012
428.022	649.010	909.882	406.446	401.464	950.078	469.853	525.638	445.884	459.677	425.537	445.718	178.365	520.829	87.728	246.008	469.588	104.207	457.630	477.338	41.679	241.450	532.145	932.670
440.910	649.078	910.404	420.146	401.292	949.454	477.345	524.277	445.280	465.319	425.431	443.627	178.827	520.966	88.324	246.668	469.618	104.668	457.749	477.115	41.422	254.765	531.422	933.828
454.018	648.955	911.605	433.811	401.054	949.184	480.235	524.962	442.348	470.165	425.324	441.827	179.259	521.108	89.261	247.033	469.700	105.571	457.878	477.096	41.075	268.235	530.857	934.967
467.202	648.831	913.289	447.674	400.560	948.961	485.994	524.036	440.820	474.349	424.944	440.476	179.849	521.251	90.288	247.984	469.765	106.400	457.946	477.122	40.765	281.790	530.400	936.105
480.632	648.655	915.274	461.207	400.117	949.252	491.768	522.795	439.661	478.040	424.664	439.219	180.507	521.293	91.523	248.635	469.830	107.350	458.057	477.118	40.570	295.453	530.079	937.578
495.171	648.425	917.933	474.313	399.414	948.871	497.243	521.716	438.330	481.591	424.218	438.376	181.140	521.155	93.109	249.392	469.771	108.567	458.160	477.141	40.330	309.114	529.874	939.441
508.899	648.161	920.656	488.799	399.109	949.781	500.341	522.138	436.625	485.036	424.108	437.749	181.948	520.921	95.055	250.146	469.746	110.014	458.327	477.091	40.109	322.936	529.525	941.227
522.752	647.902	923.719	502.643	398.097	950.160	504.296	521.898	435.810	488.348	424.017	437.497	183.094	520.719	97.418	251.085	469.628	111.891	458.537	477.066	39.861	336.967	529.348	943.159
536.697	647.428	926.922	516.537	397.448	950.849	508.257	521.788	435.151	491.871	423.931	437.571	184.430	520.403	100.283	252.219	469.521	113.827	458.661	477.037	39.745	351.106	529.032	945.265
550.759	647.063	930.339	530.651	396.801	951.832	512.328	521.676	435.176	495.354	424.022	438.075	185.894	519.830	103.667	253.462	469.328	116.381	458.784	477.082	39.627	365.357	528.986	947.713
565.069	646.669	934.069	544.595	396.110	952.739	515.780	521.886	435.484	498.941	424.057	438.917	187.748	519.281	107.366	254.799	469.132	119.259	459.021	477.116	39.444	379.687	528.999	950.325
579.392	646.131	937.674	558.714	395.562	953.768	519.667	521.857	436.300	502.778	424.068	440.350	189.428	518.860	111.808	256.743	468.769	122.122	459.179	477.140	39.238	394.111	529.037	953.226
593.854	645.476	941.897	573.079	394.856	955.171	523.830	521.787	437.775	506.880	424.039	442.248	191.822	518.351	116.366	258.797	468.393	125.376	459.347	477.129	39.079	408.897	529.254	956.101
607.032	644.811	945.310	587.441	394.295	956.553	526.371	522.681	438.957	511.331	423.922	444.531	194.741	517.620	121.356	261.343	467.797	129.027	459.532	477.134	38.974	423.391	529.433	959.118
621.651	644.155	949.727	601.902	393.600	958.167	532.060	521.608	442.053	515.990	423.712	447.275	197.909	517.011	126.602	264.074	467.138	132.948	459.732	477.120	38.919	438.188	529.493	962.358
636.533	643.457	954.262	616.421	393.143	960.525	537.240	520.915	444.987	521.072	423.290	450.553	201.510	515.532	132.164	267.214	466.398	137.015	459.897	477.058	38.887	453.087	529.774	965.529
651.156	642.924	958.625	631.470	392.275	961.989	542.351	520.344	448.170	526.148	422.725	454.101	205.638	514.994	137.948	270.770	465.520	141.339	460.001	477.020	38.787	467.995	529.986	968.786
665.774	642.394	963.034	646.448	392.414	964.681	547.743	519.625	451.525	531.636	421.954	458.054	209.859	513.719	144.320	274.467	464.486	146.163	459.943	477.055	38.513	483.206	530.193	972.418
680.633	641.899	967.825	661.541	392.257	967.249	553.479	518.679	455.170	537.079	421.062	462.228	215.150	512.907	150.461	278.656	463.577	150.579	460.016	477.049	38.324	498.518	530.514	976.008
695.355	641.476	972.396	676.868	391.932	969.785	559.338	517.654	459.031	542.934	420.035	466.607	220.457	512.222	156.970	283.380	462.494	155.300	460.308	477.024	38.189	513.881	530.707	979.715
710.085	641.075	977.086	692.279	391.745	972.360	565.710	516.507	462.743	549.035	418.877	471.217	226.709	511.606	163.533	288.412	461.439	160.203	460.776	476.813	37.993	529.520	530.914	983.481
724.799	640.798	981.704	707.855	391.595	974.795	572.362	515.170	466.730	555.223	417.729	475.852	233.353	510.342	170.186	293.724	460.055	165.385	461.040	476.720	37.674	545.091	530.895	987.371
739.537	640.604	986.531	723.587	391.730	977.289	579.446	513.863	470.789	561.798	416.460	480.865	240.547	509.293	176.922	299.619	458.722	170.210	461.536	476.523	37.332	560.077	530.232	991.478
754.395	640.381	991.178	739.545	391.925	979.993	586.673	512.160	474.669	568.512	415.293	485.919	248.223	508.001	183.755	306.087	457.110	175.150	462.048	476.303	36.940	575.833	529.830	995.507
769.031	640.277	995.457	755.943	391.936	982.409	594.555	510.721	478.866	575.559	414.267	491.058	256.482	506.727	190.548	313.014	455.182	179.943	462.547	475.995	36.382	592.542	530.254	999.409
783.680	640.158	999.640	772.028	392.404	984.726	602.725	509.422	482.886	582.943	413.394	496.266	265.214	505.939	197.816	320.503	453.380	184.492	462.575	476.166	35.165	607.896	528.920	1003.617
798.476	639.961	1003.727	788.484	392.876	987.220	611.067	508.186	487.068	590.473	412.697	501.514	274.228	504.197	204.869	328.258	451.434	189.283	462.853	475.947	34.214	623.870	528.586	1007.309
813.177	639.714	1007.515	804.770	393.410	989.453	619.825	507.058	491.258	598.440	412.091	506.623	283.582	502.307	212.114	336.482	449.418	194.052	464.206	475.302	32.923	640.011	528.074	1011.043
827.853	639.473	1010.938	821.165	394.116	991.796	628.769	506.250	495.326	606.791	411.549	511.753	293.228	500.365	219.438	344.802	447.376	199.003	465.370	474.605	31.747	656.071	527.394	1014.815
842.501	639.311	1014.089	837.735	394.656	994.146	638.049	505.597	499.396	615.597	411.114	516.838	303.118	498.314	226.859	353.353	445.408	204.047	466.687	473.616	30.589	671.946	526.609	1018.398
857.275	639.235	1017.046	854.049	395.290	996.264	647.548	505.102	503.394	624.857	410.734	521.724	313.485	496.535	234.351	362.269	443.143	209.246	467.512	473.110	28.947	688.095	525.720	1021.859
871.695	638.908	1019.995	870.289	396.085	998.428	657.422	504.640	507.269	634.521	410.437	526.427	323.818	494.312	241.804	371.318	441.361	214.337	469.080	472.181	27.193	703.740	524.795	1025.000
886.172	638.474	1022.103	886.457	396.690	1000.361	667.595	504.340	511.000	644.607	410.187	530.908	334.666	492.366	249.290	380.582	439.914	219.622	470.726	471.076	25.083	719.481	523.777	1027.934
900.695	638.309	1024.217	902.327	397.494	1001.922	678.281	504.221	514.440	655.143	409.942	535.271	345.844	490.756	256.824	390.037	438.230	225.176	472.086	469.865	22.340	735.253	522.746	1030.513
915.325	638.172	1025.848	917.878	398.173	1003.635	686.652	503.970	519.598	666.039	409.815	539.157	357.317	489.346	264.256	399.518	436.746	230.771	472.997	468.340	19.664	750.838	521.728	1032.943
929.953	638.167	1027.372	933.420	398.602	1005.111	697.821	504.063	522.772	677.351	409.640	542.906	368.991	488.084	271.562	409.088	435.385	236.571	473.216	466.718	16.681	766.498	520.524	1035.514
944.448	638.120	1028.558	948.476	399.131	1006.541	709.219	504.238	525.713	689.215	409.330	546.326	380.735	487.177	278.687	418.566	434.286	242.271	473.063	464.689	14.074	781.647	519.741	1036.669
957.565	638.908	1029.704	963.917	399.272	1007.940	721.110	504.305	528.482	701.477	408.928	549.379	392.328	486.795	285.475	427.784	433.428	248.122	473.668	462.609	14.721	796.302	519.535	1038.391
972.096	638.991	1030.268	979.092	399.414	1009.201	733.529	504.302	530.545	714.275	408.560	551.928	403.649	486.673	292.238	436.703	432.821	254.165	475.486	459.858	19.194	811.545	518.777	1039.359
986.680	639.201	1030.740	994.176	399.512	1010.187	746.493	504.198	532.321	727.656	407.924	554.100	414.695	487.079	298.819	445.696	432.383	260.466	479.194	456.617	25.643	826.640	518.037	1040.207
1001.239	639.162	1031.212	1009.137	399.570	1011.194	760.422	504.924	534.584	741.586	407.119	555.774	424.927	487.740	305.576	454.460	432.377	266.786	484.403	453.365	32.367	841.668	517.337	1040.974
1015.675	639.350	1031.263	1024.181	399.570	1012.048	774.377	504.685	535.676	755.854	406.347	556.942	434.586	488.670	312.232	463.357	432.532	273.565	491.288	449.703	39.425	856.532	516.672	1041.519
1030.322	639.589	1031.285	1039.151	399.477	1013.215	788.786	504.232	536.160	770.678	405.429	557.648	443.620	489.341	318.824	472.012	432.784	280.465	498.376	446.746	46.444	871.325	516.260	1041.503
1046.761	639.923	1032.167	1053.804	399.552	1013.643	802.238	504.049	536.234	785.993	404.530	557.785	452.875	491.100	325.349	480.774	433.458	287.474	505.727	444.218	53.203	886.021	515.967	1041.354
1060.457	639.958	1031.272	1068.361	399.731	1014.189	817.230	503.523	536.259	801.748	403.654	557.373	462.009	492.594	331.839	489.759	434.309	294.479	513.757	441.815	60.040	900.542	515.788	1040.770
1074.694	640.202	1030.992	1083.148	399.735	1014.534	833.116	502.736	534.867	817.813	402.689	556.764	471.309	493.720	338.317	499.131	435.193	301.575	522.183	439.727	66.963	914.945	515.734	1039.862
1089.371	640.464	1030.927	1097.512	399.866	1014.565	849.881	501.472	533.431	834.281	401.767	555.727	481.269	495.171	344.894	509.034	436.089	308.570	530.323	438.283	73.911	929.274	515.561	1039.094
1103.883	640.627	1030.306	1112.067	399.801	1014.656	866.106	500.583	531.561	850.929	400.947	554.392	491.559	495.956	351.546	519.413	436.962	315.504	539.019	436.604	81.070	943.508	515.236	1038.249
1117.463	640.615	1028.791	1126.446	399.866	1014.577	882.624	499.608	529.298	867.795	400.038	552.872	502.567	497.150	358.397	530.545	437.716	322.441	547.829	435.093	88.002	957.443	515.076	1036.685
1131.202	640.786	1027.240	1156.176	391.318	1022.121	899.363	498.658	526.903	884.789	399.151	550.971	514.612	498.460	364.862	542.224	438.450	329.247	556.693	433.686	95.039	971.518	514.928	1035.280
1145.032	641.067	1025.641	1170.104	391.501	1021.601	918.115	497.148	523.517	902.143	398.280	548.729	527.427	499.688	371.400	554.381	439.218	335.883	565.532	432.462	101.700	985.367	514.693	1033.292
1158.884	641.384	1023.980	1184.204	391.516	1020.844	934.582	496.471	520.608	919.390	397.428	546.373	540.701	500.730	377.879	567.060	439.896	342.296	574.400	431.242	108.367	999.345	514.654	1031.419
1172.692	641.663	1022.244	1198.027	391.695	1020.058	953.091	495.164	516.840	936.846	396.477	543.762	554.601	501.710	384.338	580.304	440.429	348.547	583.255	430.064	115.037	1013.110	514.593	1029.387
1186.387	641.831	1020.422	1212.406	391.489	1019.158	970.469	494.251	513.592	954.437	395.483	540.973	568.948	502.742	390.570	594.098	440.909	354.704	592.228	429.089	121.371	1026.657	514.512	1026.917
1199.904	641.815	1018.499	1226.464	391.518	1017.943	989.181	492.875	509.644	972.220	394.559	537.845	584.382	503.497	396.770	608.320	441.350	360.553	601.222	428.048	127.631	1040.270	514.276	1024.486
1213.398	641.807	1017.016	1240.662	391.457	1016.493	1008.140	491.698	505.472	989.902	393.832	534.644	600.236	504.281	402.701	623.069	441.659	366.170	610.288	427.067	133.569	1053.618	513.860	1021.950
1226.085	642.133	1015.002	1254.650	391.569	1015.020	1026.951	490.465	501.121	1008.001	392.687	531.233	616.886	504.968	408.436	638.094	441.892	371.813	619.518	426.085	139.775	1067.323	513.429	1019.437
1238.347	642.814	1011.963	1268.370	391.825	1012.981	1045.810	489.301	496.847	1026.308	391.508	527.585	634.043	505.492	413.850	653.745	442.127	376.906	628.920	425.126	145.740	1080.525	512.979	1016.250
1251.238	642.923	1010.753	1282.519	391.853	1010.919	1065.017	488.064	492.407	1044.813	390.316	523.650	651.899	505.955	419.146	669.970	442.201	381.703	638.613	424.239	151.601	1087.237	510.172	1014.600
1263.937	643.070	1008.865	1296.440	392.123	1008.611	1083.639	487.191	487.824	1063.513	389.045	519.732	670.137	506.213	423.996	686.795	442.079	386.221	648.652	423.447	157.378	1107.325	511.859	1009.929
1276.642	643.271	1007.011	1310.722	392.172	1006.293	1107.062	483.881	483.113	1082.368	387.762	515.385	688.895	506.359	428.563	703.886	441.896	390.527	659.212	422.665	163.030	1120.626	511.044	1006.526
1288.838	643.779	1004.773	1324.850	392.357	1003.647	1126.665	482.949	478.174	1101.614	386.459	511.006	707.593	506.762	432.715	721.438	441.638	394.537	670.462	422.021	168.459	1133.821	510.201	1002.968
1301.436	643.973	1002.665	1339.330	392.338	1000.971	1145.724	482.478	472.842	1121.012	385.091	506.466	726.944	506.617	436.745	739.258	441.352	398.379	682.486	421.460	173.739	1147.230	509.492	998.904
1313.749	644.428	1000.195	1352.890	392.756	997.783	1164.519	482.105	467.785	1140.565	383.726	501.654	746.676	505.757	440.902	757.738	440.540	402.072	695.354	421.032	178.794	1160.626	508.400	995.229
1326.110	644.812	997.738	1366.818	393.113	994.476	1183.225	481.663	462.683	1160.366	382.310	496.717	766.012	505.598	444.353	776.216	440.060	405.440	709.245	420.702	183.588	1174.235	507.330	991.338
1338.726	645.053	995.305	1380.985	393.230	991.321	1202.034	481.227	457.563	1181.871	380.607	492.016	785.605	504.986	447.764	795.007	439.500	408.511	724.864	419.809	188.534	1187.541	506.065	987.503
1351.042	645.494	992.300	1394.985	393.379	987.957	1221.593	480.635	452.291	1201.928	379.207	486.822	805.594	504.277	450.980	814.179	438.872	411.333	740.855	419.765	192.369	1200.960	504.986	983.415
1363.389	645.877	989.063	1408.488	393.852	983.977	1241.372	479.763	447.107	1221.951	377.668	481.399	825.104	503.605	453.879	833.434	438.294	413.997	757.877	419.825	195.853	1214.459	503.908	979.178
1375.756	646.181	985.798	1422.467	394.092	980.247	1260.889	479.071	441.869	1242.196	376.509	476.065	844.901	502.682	456.808	853.258	437.622	416.214	775.850	419.947	198.820	1227.615	502.957	974.815
1388.095	646.381	982.251	1436.010	394.466	976.104	1281.123	478.330	436.468	1262.716	375.368	470.755	864.655	501.785	459.219	873.276	436.783	418.538	794.824	420.105	201.271	1240.539	501.834	970.531
1400.472	646.554	978.589	1436.583	403.365	964.269	1300.990	477.835	431.090	1282.987	374.612	465.124	884.646	500.623	461.479	893.626	435.923	420.206	814.471	420.184	203.210	1253.614	501.002	966.166
1412.386	646.744	974.671	1450.562	403.439	959.836	1321.808	477.538	425.808	1303.546	373.961	459.829	904.967	499.253	463.460	914.208	434.927	421.616	834.725	420.307	204.812	1265.953	500.117	961.692
1423.999	646.849	970.724	1463.154	403.708	954.302	1342.511	477.101	420.883	1324.268	373.518	454.575	925.531	497.671	465.099	935.023	433.827	422.593	855.541	420.365	205.876	1278.248	499.195	957.333
1435.325	647.045	966.749	1475.473	404.079	949.066	1363.133	477.141	415.920	1345.187	373.145	449.444	946.367	495.982	466.347	956.058	433.019	422.908	876.859	420.364	206.633	1290.243	498.385	952.897
1446.325	647.454	963.079	1487.605	404.514	944.156	1384.556	477.095	411.418	1366.066	373.261	444.429	967.468	494.160	467.169	977.713	431.478	423.222	898.520	420.201	206.955	1302.236	497.702	948.283
1457.294	648.041	959.916	1499.639	404.974	939.605	1405.997	477.531	407.361	1387.594	373.331	440.022	988.933	491.968	467.484	999.689	429.858	422.992	920.504	420.241	206.535	1314.064	496.833	943.854
1468.459	648.865	957.399	1511.663	405.420	935.441	1427.698	478.245	403.601	1408.695	373.954	435.225	1010.404	489.821	467.356	1021.620	428.376	422.027	942.781	420.103	205.779	1326.363	495.940	939.219
1480.157	649.615	955.659	1523.764	405.815	931.695	1449.599	479.240	400.573	1430.519	374.360	431.507	1032.096	487.819	466.623	1044.121	426.610	420.883	965.537	419.727	204.435	1338.256	494.892	934.321
1491.663	650.700	953.683	1536.031	406.119	928.398	1471.556	480.415	398.131	1452.814	374.682	427.893	1053.888	485.965	465.341	1066.533	425.086	419.017	988.676	419.380	202.546	1350.676	493.321	930.000
1503.707	651.429	952.006	1548.550	406.295	925.580	1494.809	481.890	395.290	1475.383	375.062	424.641	1075.800	483.855	463.844	1089.190	423.380	417.003	1012.132	419.009	200.210	1363.133	491.847	925.443
1515.884	652.213	949.846	1561.410	406.304	923.271	1516.174	482.872	393.563	1498.144	375.411	422.114	1097.781	481.780	461.905	1111.996	421.850	414.494	1036.145	418.381	197.674	1375.712	490.318	920.945
1528.185	652.862	947.588	1574.699	406.107	921.501	1537.721	483.771	392.152	1521.152	375.716	419.988	1119.755	479.912	459.426	1134.702	420.358	411.661	1060.592	417.721	194.351	1389.123	489.475	917.209
1540.904	653.234	945.173	1588.505	405.667	920.302	1559.429	484.589	391.045	1544.017	376.161	417.675	1143.440	477.688	457.235	1157.723	418.849	408.553	1085.791	416.835	190.705	1402.110	488.420	913.910
1553.634	653.484	942.658	1602.915	404.943	919.702	1581.278	485.328	390.231	1567.032	376.410	415.953	1165.089	476.129	453.869	1182.509	417.571	405.835	1111.384	415.839	186.703	1415.242	487.967	910.946
1566.586	653.467	940.314	1618.016	403.899	919.733	1603.248	485.990	389.697	1590.087	376.767	414.478	1186.930	474.515	450.488	1205.235	416.438	402.209	1137.589	414.603	182.275	1427.450	487.041	908.633
1579.560	653.391	937.989	1628.208	402.380	917.542	1625.319	486.577	389.432	1612.823	377.089	412.969	1208.480	473.112	446.572	1228.374	415.171	398.599	1164.272	413.432	177.366	1440.561	487.322	907.472
1593.081	652.569	936.244	1640.541	401.546	916.298	1647.471	487.092	389.423	1635.734	377.359	412.084	1229.940	471.732	442.421	1251.440	413.945	394.750	1194.678	410.854	173.828	1453.385	487.701	907.073
1606.214	652.111	933.990	1653.340	400.826	915.306	1669.683	487.537	389.659	1658.469	377.707	411.512	1251.017	470.148	438.092	1274.669	412.569	390.651	1220.604	411.271	166.141	1466.184	488.471	906.675
1619.853	651.367	932.213	1666.205	400.193	914.298	1691.935	487.913	390.128	1681.281	378.039	411.634	1272.203	468.849	433.091	1297.643	411.186	386.110	1248.597	409.818	160.364	1479.371	489.182	907.004
1633.212	650.854	930.632	1679.280	399.477	913.602	1714.142	488.204	391.067	1702.982	378.821	411.753	1293.415	467.823	427.553	1320.536	410.053	381.340	1277.289	408.104	154.388	1492.488	490.016	907.349
1646.847	650.312	929.482	1692.222	399.103	912.758	1736.418	488.520	392.557	1725.379	379.168	412.948	1314.304	466.879	421.429	1341.631	409.965	375.546	1306.378	406.951	147.088	1505.795	490.594	908.308
1660.261	649.974	928.498	1705.319	398.811	912.257	1758.356	488.866	394.657	1747.404	379.658	414.729	1333.742	466.701	414.682	1364.358	409.073	370.176	1335.904	405.292	140.743	1519.246	491.171	908.830
1673.760	649.652	927.884	1718.560	398.807	911.992	1780.282	489.398	396.974	1769.227	380.063	417.396	1354.850	465.862	407.951	1386.989	408.252	364.231	1365.948	403.003	135.456	1532.794	491.339	910.084
1687.406	649.517	927.443	1732.170	398.802	912.294	1802.651	489.953	400.523	1790.447	380.653	420.258	1375.714	465.171	400.614	1410.152	407.235	358.696	1396.318	401.971	127.815	1546.415	491.358	911.053
1701.229	649.439	927.413	1745.691	399.014	913.113	1824.310	490.516	404.186	1811.592	381.252	423.610	1396.920	464.332	393.236	1432.649	406.843	351.901	1427.282	400.347	121.509	1560.555	491.151	912.183
1715.103	649.485	927.642	1759.623	399.260	914.313	1845.515	491.046	408.272	1832.918	381.705	427.722	1417.921	463.744	385.199	1455.256	406.451	345.105	1458.551	398.863	115.226	1574.143	490.532	913.594
1728.853	649.815	927.985	1773.600	399.627	915.963	1866.548	491.576	412.931	1853.647	382.242	431.801	1439.122	463.184	376.992	1478.191	405.981	338.202	1493.776	399.428	108.681	1588.528	490.026	915.081
1743.027	650.052	928.667	1787.504	400.246	917.670	1883.784	491.282	417.515	1873.005	382.460	435.943	1460.954	462.439	368.684	1501.310	405.463	331.195	1526.051	398.320	102.584	1602.638	489.439	916.694
1756.958	650.375	929.575	1801.926	400.590	920.121	1903.485	491.695	422.642	1897.665	384.072	440.324	1482.430	462.022	359.718	1524.631	405.042	323.950	1558.561	397.346	96.705	1617.031	489.061	918.549
1771.189	650.749	930.509	1816.145	401.111	922.578	1922.751	492.001	427.699	1913.182	383.395	445.303	1504.390	461.586	350.304	1548.154	404.712	316.531	1590.887	396.401	90.992	1631.783	488.486	920.679
1785.599	651.173	931.594	1830.442	401.588	925.404	1937.990	492.266	435.886	1933.130	383.974	450.379	1525.865	461.702	340.532	1571.872	404.334	309.079	1623.082	395.510	85.469	1646.301	488.120	923.002
1800.090	651.603	932.822	1844.719	402.176	928.336	1957.293	492.740	441.045	1952.268	384.510	455.302	1548.124	461.396	331.012	1595.687	403.960	301.501	1655.196	394.696	80.164	1661.021	487.775	925.831
1814.507	652.044	934.299	1859.103	402.711	931.420	1976.271	493.274	446.429	1971.468	385.021	460.601	1570.549	461.164	321.057	1619.573	403.753	293.797	1687.281	393.985	75.100	1675.052	487.500	928.757
1829.291	652.362	935.992	1873.662	403.127	934.853	1994.840	493.672	451.846	1989.909	385.650	465.631	1593.454	460.747	311.276	1643.773	403.513	285.901	1719.389	393.399	70.304	1690.589	487.290	932.024
1844.391	652.450	938.050	1888.283	403.541	938.582	2013.109	494.044	457.062	2008.240	386.150	470.942	1616.950	460.808	300.558	1668.450	403.100	278.280	1751.571	392.965	65.802	1705.732	487.492	935.239
1859.587	652.556	940.246	1902.728	404.082	942.303	2031.304	494.489	462.258	2026.392	386.666	476.077	1640.317	460.496	290.423	1685.913	404.173	272.183	1783.880	392.705	61.619	1720.623	487.514	938.788
1874.178	653.436	941.343	1917.330	404.512	946.100	2048.799	494.699	467.289	2043.731	387.165	481.031	1664.292	460.084	280.368	1711.054	404.102	264.035	1816.366	392.643	57.780	1728.694	487.484	943.570
1890.200	652.648	945.130	1931.875	404.828	950.250	2066.417	495.107	472.548	2060.954	387.669	485.788	1688.115	459.844	269.813	1735.994	403.925	256.209	1849.082	392.806	54.311	1742.751	487.612	947.611
1905.730	652.678	947.751	1946.503	405.095	954.397	2087.615	495.915	474.797	2078.017	388.031	490.516	1715.950	460.133	260.334	1761.538	403.831	248.197	1882.078	393.216	51.238	1757.325	487.931	951.361
1921.385	652.565	950.566	1961.030	405.478	958.390	2104.247	496.292	479.778	2094.855	388.588	495.078	1740.391	459.748	249.752	1787.089	403.649	240.338	1915.407	393.897	48.587	1773.217	488.441	955.308
1937.032	652.458	953.395	1975.606	405.634	962.684	2120.785	496.440	484.551	2111.059	388.924	499.477	1766.321	459.532	239.948	1813.221	403.817	232.315	1949.120	394.875	46.382	1789.662	488.782	959.341
1948.501	652.320	956.417	1990.302	405.703	966.922	2137.004	496.717	489.356	2126.977	389.287	503.661	1790.720	459.219	229.434	1839.649	403.947	224.429	1983.269	396.173	44.650	1804.182	489.207	963.895
1964.478	652.065	959.223	2004.723	405.813	970.926	2152.832	496.694	493.936	2142.089	389.410	507.598	1817.400	459.136	219.575	1865.683	404.128	216.685	2017.532	397.603	43.338	1819.888	489.455	968.262
1980.309	651.696	962.200	2019.523	405.584	975.107	2168.320	496.726	498.174	2157.156	389.596	511.210	1843.733	459.152	209.630	1892.372	404.302	209.096	2052.399	399.019	42.661	1835.612	490.088	972.311
1996.405	651.279	965.139	2033.962	405.489	979.105	2183.864	496.576	502.531	2172.685	389.673	514.958	1870.291	459.458	199.538	1933.038	404.766	197.043	2087.689	400.432	42.618	1851.003	490.559	975.663
2012.282	650.607	968.188	2048.876	405.100	983.155	2199.217	496.234	506.587	2187.833	389.666	518.371	1897.652	459.904	190.057	1960.415	405.966	189.334	2123.221	401.857	43.206	1865.354	490.987	980.306
2028.216	649.994	971.117	2063.464	404.818	987.055	2214.447	495.856	510.368	2202.711	389.755	521.655	1925.030	460.379	180.737	1987.189	406.837	182.212	2158.812	403.306	44.423	1881.756	491.523	984.242
2044.392	649.290	974.141	2078.082	404.525	990.868	2228.830	495.364	513.561	2217.093	389.691	524.486	1952.474	460.850	171.570	2013.996	407.710	175.189	2194.282	404.793	46.267	1897.524	492.204	988.212
2060.626	648.618	976.869	2092.801	404.270	994.533	2243.533	494.647	516.789	2231.466	389.593	527.322	1980.356	461.629	162.497	2041.777	408.578	168.525	2229.450	406.330	48.735	1912.906	493.032	990.940
2076.392	647.745	979.701	2107.432	404.090	998.144	2254.389	493.438	517.236	2244.877	389.541	529.592	2007.557	461.907	153.791	2068.674	409.255	161.913	2264.133	407.930	51.824	1928.611	493.564	994.877
2092.701	646.894	982.868	2122.123	403.964	1001.417	2268.451	492.614	519.483	2258.250	389.550	531.673	2034.100	462.072	145.242	2096.563	409.863	155.937	2298.152	409.606	55.534	1944.270	494.148	998.649
2108.465	645.833	985.792	2136.843	403.973	1004.457	2282.216	491.767	521.366	2271.085	389.424	533.287	2064.362	462.695	136.184	2125.278	410.896	150.240	2331.324	411.372	59.860	1959.475	494.812	1001.286
2124.623	644.775	988.930	2151.621	404.042	1007.313	2295.695	490.962	523.076	2283.402	389.379	534.466	2096.701	463.556	127.116	2153.145	411.502	144.850	2363.643	413.079	64.522	1974.690	495.378	1004.920
2140.453	643.884	992.281	2166.334	404.278	1009.812	2308.897	490.216	524.396	2295.583	389.231	535.498	2129.473	464.430	118.538	2181.120	412.212	139.751	2395.184	414.804	69.508	1990.460	496.064	1006.998
2155.943	643.275	995.185	2181.044	404.601	1012.019	2321.976	489.565	525.756	2307.281	389.178	536.042	2161.034	465.095	110.949	2208.923	412.979	135.322	2426.021	416.623	74.809	2005.139	496.719	1010.091
2171.135	642.906	997.670	2195.891	404.883	1013.939	2334.271	488.952	526.452	2319.426	389.280	536.452	2189.741	465.327	104.848	2236.655	413.578	131.386	2456.229	418.615	80.415	2020.376	497.327	1012.482
2186.073	642.737	999.763	2210.307	405.981	1014.366	2346.652	488.352	526.987	2331.081	389.318	536.304	2213.949	464.904	100.735	2264.583	414.106	127.982	2487.044	420.841	87.088	2034.687	497.959	1014.550
2200.799	642.726	1001.492	2221.429	405.526	1016.714	2358.795	487.797	527.406	2342.819	389.455	535.985	2242.327	465.077	95.863	2292.899	414.825	125.195	2515.406	422.537	92.922	2050.912	498.794	1015.858
2215.357	642.833	1002.884	2236.280	405.756	1017.770	2370.478	487.394	527.413	2354.306	389.448	535.379	2269.672	465.161	91.986	2318.974	414.914	122.170	2544.355	424.406	100.020	2065.545	499.115	1018.141
2229.788	643.017	1003.968	2250.821	405.880	1018.616	2382.041	487.077	527.181	2366.001	389.498	534.624	2297.791	465.629	87.899	2346.646	415.234	120.654	2572.306	425.981	107.159	2080.722	499.573	1019.789
2244.136	643.238	1004.770	2265.769	406.009	1019.343	2393.742	486.799	526.695	2377.532	389.559	533.747	2326.395	466.186	84.622	2374.064	415.327	118.861	2599.033	427.206	114.405	2095.528	499.959	1020.496
2258.443	643.453	1005.319	2280.223	405.969	1019.979	2405.277	486.641	526.135	2388.950	389.434	532.644	2354.434	466.728	82.014	2402.332	415.469	117.589	2625.576	428.220	122.386	2110.630	500.196	1021.594
2272.753	643.623	1005.643	2294.869	405.956	1020.295	2416.739	486.557	525.028	2400.231	389.481	531.359	2381.866	467.425	79.358	2428.256	415.488	116.306	2651.545	428.955	130.561	2124.751	500.525	1021.518
2287.107	643.706	1005.768	2309.456	405.879	1020.398	2428.594	486.529	523.919	2411.830	389.547	530.187	2409.449	467.966	77.963	2447.925	415.452	117.672	2675.665	429.166	138.260	2139.694	500.802	1021.636
2301.549	643.661	1005.723	2323.681	405.561	1020.480	2440.362	486.488	522.485	2423.330	389.690	528.911	2434.892	468.589	76.854	2465.181	415.394	120.354	2699.287	429.159	145.754	2154.319	500.758	1022.060
2315.775	644.044	1005.232	2338.171	405.278	1020.392	2452.184	486.514	521.026	2434.742	389.963	527.527	2459.569	468.973	76.603	2483.868	415.349	123.016	2722.236	428.938	153.133	2168.046	500.818	1021.706
2330.176	644.494	1004.868	2352.675	405.042	1020.057	2464.186	486.567	519.573	2446.689	390.235	526.273	2484.197	469.250	76.279	2507.827	415.348	124.326	2744.790	428.753	160.579	2183.120	500.700	1020.806
2343.406	644.555	1004.268	2367.052	404.660	1019.916	2476.451	486.696	518.401	2458.452	390.587	524.844	2509.037	469.559	75.679	2529.079	415.913	124.652	2765.096	428.393	166.697	2197.277	500.563	1020.055
2357.760	644.470	1004.022	2381.229	404.347	1019.348	2488.553	486.980	517.144	2470.877	390.918	523.604	2531.919	469.847	75.854	2551.105	416.019	125.892	2785.862	428.657	173.292	2211.736	500.340	1018.929
2372.171	644.670	1003.507	2395.347	403.897	1019.014	2500.748	487.380	516.161	2483.166	391.263	522.276	2553.926	470.173	75.633	2571.592	416.333	127.154	2805.079	428.850	179.038	2226.186	500.101	1017.469
2385.098	645.291	1002.704	2409.286	403.643	1018.287	2513.137	487.884	515.362	2495.852	391.833	520.769	2575.282	470.544	75.544	2591.189	416.798	128.100	2825.048	429.527	185.030	2240.714	499.819	1016.363
2399.159	645.265	1002.372	2423.001	403.266	1017.460	2525.702	488.598	514.508	2508.885	392.398	519.698	2595.065	471.232	75.460	2610.297	417.197	129.246	2843.118	430.136	189.593	2254.372	499.438	1014.648
2414.017	644.781	1002.281	2436.911	402.990	1016.460	2538.388	489.423	513.795	2522.060	393.114	518.246	2614.032	471.865	74.957	2629.038	417.487	130.232	2859.801	430.359	192.719	2267.947	499.233	1012.626
2429.339	644.028	1002.201	2450.396	402.693	1015.094	2551.347	490.312	513.082	2535.588	393.766	517.077	2632.023	472.438	75.121	2646.228	418.155	130.203	2877.101	430.625	195.715	2281.920	498.892	1010.582
2444.790	643.195	1001.903	2463.907	402.324	1013.552	2564.496	491.349	512.265	2556.022	396.590	515.838	2650.009	473.321	73.563	2663.041	418.702	129.921	2893.083	430.584	197.447	2297.018	498.610	1008.039
2460.036	642.471	1001.156	2477.313	401.912	1012.086	2577.975	492.376	511.291	2570.357	397.290	514.926	2666.514	473.734	73.012	2679.314	419.306	129.317	2908.349	430.580	198.187	2310.400	497.962	1006.150
2474.742	642.045	999.730	2490.775	401.660	1010.272	2591.853	493.407	510.182	2584.846	397.858	513.716	2683.333	474.441	71.656	2694.132	420.098	127.706	2923.386	430.815	198.227	2322.819	497.348	1004.051
2488.574	642.104	997.397	2504.134	401.352	1008.368	2605.983	494.426	508.795	2600.115	398.321	512.822	2698.090	475.531	68.640	2708.744	420.708	126.060	2938.680	431.490	197.862	2337.179	497.121	1001.092
2501.197	642.840	993.926	2517.241	400.988	1006.280	2620.442	495.499	507.247	2616.295	399.049	511.858	2712.576	475.736	67.698	2723.588	420.999	124.781	2953.406	432.126	195.903	2351.410	496.920	998.068
2514.817	643.329	991.077	2530.711	400.741	1004.048	2635.312	496.557	505.506	2632.325	399.573	510.871	2724.372	476.414	65.357	2735.863	422.023	122.195	2967.608	432.788	192.674	2363.908	496.887	994.719
2528.578	643.426	988.529	2543.408	400.327	1001.559	2650.452	497.498	503.760	2649.571	400.270	510.100	2737.097	477.130	62.504	2747.458	422.996	119.190	2981.331	433.543	188.500	2378.153	496.716	992.026
2542.161	643.282	985.842	2556.534	400.007	999.330	2665.657	498.167	502.034	2665.591	400.613	508.365	2747.590	477.488	60.305	2758.792	423.813	116.389	2994.620	434.455	183.705	2390.756	496.842	988.657
2556.194	643.200	982.979	2569.522	399.516	997.040	2681.416	498.640	500.719	2682.258	400.938	506.845	2757.818	478.013	57.680	2769.716	424.742	113.292	3007.519	435.591	178.614	2404.707	496.989	985.423
2570.231	643.113	979.950	2582.493	399.052	994.341	2697.471	498.714	499.373	2699.057	401.107	505.256	2768.033	478.920	54.477	2779.826	425.657	110.081	3020.072	437.015	173.551	2418.677	497.346	982.133
2583.817	642.864	976.482	2595.462	398.636	991.697	2713.770	498.596	498.096	2715.288	401.264	503.216	2777.041	479.885	51.266	2789.879	426.595	106.758	3023.070	440.895	168.881	2431.316	497.727	978.289
2597.741	642.554	972.987	2607.973	397.948	988.993	2730.297	498.088	496.793	2731.772	401.466	501.369	2785.960	480.821	49.835	2798.939	427.519	103.740	3036.474	441.467	160.989	2444.394	498.117	974.673
2611.500	642.206	969.258	2620.962	397.363	986.202	2746.848	497.391	495.347	2748.068	401.810	499.317	2792.203	481.707	49.921	2807.976	428.649	101.075	3049.025	442.280	151.545	2457.476	498.778	970.598
2625.090	641.677	965.469	2633.587	396.760	983.175	2763.371	496.800	493.649	2763.968	402.223	497.446	2796.832	483.306	51.985	2816.479	429.668	98.263	3049.463	446.883	142.221	2471.296	499.283	966.751
2638.816	641.151	961.384	2646.355	396.091	980.064	2780.005	496.685	491.826	2780.421	402.594	495.748	2802.278	486.218	52.669	2846.221	433.679	88.035	0.000	0.000	0.000	2484.846	500.019	962.672
2653.293	640.722	957.296	2659.085	395.517	976.910	2796.227	497.114	489.486	2796.072	403.051	493.378	2806.494	488.092	53.515	2852.770	436.727	85.332	0.000	0.000	0.000	2497.270	500.504	958.677
2666.859	639.849	952.873	2671.458	394.746	973.687	2812.802	497.887	487.092	2811.687	403.403	491.005	2809.434	488.892	55.387	2858.570	438.243	83.559	0.000	0.000	0.000	2509.819	500.793	954.777
2681.372	639.279	948.619	2683.173	394.043	970.162	2829.274	499.347	484.693	2827.075	403.793	488.700	2812.961	489.111	56.536	2863.808	439.306	82.370	0.000	0.000	0.000	2523.148	501.411	950.358
2694.505	638.207	943.832	2695.046	393.440	966.688	2845.633	501.193	482.393	2843.138	404.247	487.012	2816.463	488.782	59.687	2868.528	440.051	81.775	0.000	0.000	0.000	2535.176	501.942	945.619
2708.921	637.419	939.155	2706.990	392.736	963.241	2861.783	502.980	480.792	2859.932	404.833	485.974	2818.684	489.225	61.617	2873.810	441.151	82.742	0.000	0.000	0.000	2547.787	501.975	942.158
2721.949	636.202	934.252	2718.457	391.971	959.800	2877.697	504.367	480.343	2877.481	405.498	485.589	2820.707	489.789	63.959	2877.551	442.449	83.121	0.000	0.000	0.000	2560.770	502.513	937.420
2735.882	635.091	929.581	2730.052	391.028	956.490	2893.686	505.352	481.416	2896.135	406.569	486.131	2822.471	491.085	65.963	2881.224	443.972	85.058	0.000	0.000	0.000	2571.993	502.864	933.110
2749.098	633.863	924.933	2741.168	389.755	953.750	2909.600	505.904	483.441	2916.396	408.447	488.042	2824.793	492.393	67.474	2882.728	445.219	86.191	0.000	0.000	0.000	2584.475	503.259	928.844
2761.999	632.705	920.127	2752.273	388.163	951.291	2924.975	505.849	485.627	2935.169	410.108	489.438	2824.416	493.544	68.251	2883.802	446.766	86.977	0.000	0.000	0.000	2595.476	503.881	924.128
2774.486	631.493	915.938	2763.291	386.460	949.485	2940.021	504.944	487.786	2951.993	411.413	490.296	2825.988	494.390	69.554	2887.012	447.473	88.591	0.000	0.000	0.000	2608.085	504.677	920.295
2787.166	630.542	912.186	2775.398	384.715	948.316	2954.351	503.736	489.354	2965.769	411.837	489.814	2825.389	495.082	70.590	2888.092	448.752	88.206	0.000	0.000	0.000	2620.283	506.169	914.480
2799.485	629.848	908.744	2787.053	382.953	946.946	2967.819	502.446	489.851	2980.105	412.400	489.505	2825.811	495.727	71.028	2889.392	449.437	88.203	0.000	0.000	0.000	2633.563	507.124	910.558
2811.385	629.246	905.478	2798.474	381.313	945.581	2980.707	501.662	488.811	2991.251	412.239	486.826	2826.598	496.208	71.172	2890.533	450.164	88.205	0.000	0.000	0.000	2643.120	507.777	907.280
2823.598	628.912	902.845	2810.219	379.732	944.133	2992.633	501.676	485.635	2998.929	411.252	481.565	2827.677	496.739	71.086	2892.235	451.286	88.752	0.000	0.000	0.000	2656.256	509.075	902.452
2835.851	628.745	900.750	2822.662	378.535	942.284	3003.843	502.355	481.009	3009.896	411.428	478.405	2827.769	497.108	71.236	2893.460	451.858	89.131	0.000	0.000	0.000	2668.903	509.602	899.410
2847.641	628.410	898.956	2834.772	377.415	940.721	3014.245	503.169	476.091	3017.630	410.880	473.591	2828.986	497.379	71.302	2894.398	451.985	89.415	0.000	0.000	0.000	2681.569	510.136	896.588
2859.020	628.131	897.376	2847.420	376.689	939.001	3023.834	504.170	471.245	3026.665	410.835	470.098	2830.521	498.047	70.877	2895.240	451.774	89.682	0.000	0.000	0.000	2693.204	509.702	894.855
2871.166	628.141	896.399	2859.514	376.005	937.555	0.000	0.000	0.000	3032.942	410.231	465.600	2833.764	498.858	70.647	2896.177	451.331	90.007	0.000	0.000	0.000	2706.472	509.044	894.101
2883.270	628.240	895.459	2872.649	375.946	936.495	0.000	0.000	0.000	3041.197	410.322	462.461	0.000	0.000	0.000	2897.079	451.252	90.204	0.000	0.000	0.000	2717.574	507.559	893.909
2894.854	628.385	894.539	2885.541	376.053	935.412	0.000	0.000	0.000	3048.361	410.144	458.775	0.000	0.000	0.000	2898.322	451.401	90.623	0.000	0.000	0.000	2730.736	505.970	894.185
2906.489	628.620	893.801	2898.108	376.431	934.449	0.000	0.000	0.000	3055.882	410.247	455.074	0.000	0.000	0.000	2898.759	451.265	90.667	0.000	0.000	0.000	2742.668	504.602	893.390
2918.047	629.003	893.207	2911.302	377.243	933.843	0.000	0.000	0.000	3064.716	410.640	452.330	0.000	0.000	0.000	2899.045	450.888	90.625	0.000	0.000	0.000	2755.232	502.956	894.297
2929.106	629.396	892.758	2924.676	378.207	933.296	0.000	0.000	0.000	3073.871	411.302	449.596	0.000	0.000	0.000	2899.488	450.600	90.645	0.000	0.000	0.000	2767.628	501.200	895.038
2940.189	629.821	892.637	2937.534	379.132	932.711	0.000	0.000	0.000	3082.521	411.923	447.101	0.000	0.000	0.000	2899.537	450.169	90.681	0.000	0.000	0.000	2778.860	500.107	894.720
2951.850	630.613	892.765	2950.226	379.998	932.196	0.000	0.000	0.000	3091.018	412.462	444.619	0.000	0.000	0.000	2899.716	449.465	90.905	0.000	0.000	0.000	2792.499	499.029	895.634
2963.352	631.242	893.525	2962.867	380.836	931.773	0.000	0.000	0.000	3098.413	412.803	442.269	0.000	0.000	0.000	2879.036	446.405	99.592	0.000	0.000	0.000	2804.202	497.619	897.342
2974.655	631.919	894.218	2975.576	381.604	931.462	0.000	0.000	0.000	3105.173	412.951	440.157	0.000	0.000	0.000	0.000	0.000	0.000	0.000	0.000	0.000	2814.419	496.911	897.725
2985.777	632.400	895.453	2988.231	382.211	931.257	0.000	0.000	0.000	3111.686	412.840	438.604	0.000	0.000	0.000	0.000	0.000	0.000	0.000	0.000	0.000	2828.287	496.177	898.745
2997.890	633.026	897.282	3001.040	382.586	931.553	0.000	0.000	0.000	3115.539	412.114	435.716	0.000	0.000	0.000	0.000	0.000	0.000	0.000	0.000	0.000	2840.367	495.349	900.448
3009.605	633.472	899.135	3013.738	382.939	931.892	0.000	0.000	0.000	3120.559	411.810	434.123	0.000	0.000	0.000	0.000	0.000	0.000	0.000	0.000	0.000	2852.981	495.054	901.979
3021.312	633.885	901.256	3026.514	383.078	932.856	0.000	0.000	0.000	3125.293	411.513	432.424	0.000	0.000	0.000	0.000	0.000	0.000	0.000	0.000	0.000	2865.536	494.797	903.831
3033.443	634.066	903.780	3038.880	383.079	933.774	0.000	0.000	0.000	3129.739	411.148	431.104	0.000	0.000	0.000	0.000	0.000	0.000	0.000	0.000	0.000	2877.175	494.606	906.129
3045.445	634.207	906.504	3051.380	382.911	934.831	0.000	0.000	0.000	3134.211	410.844	430.145	0.000	0.000	0.000	0.000	0.000	0.000	0.000	0.000	0.000	2890.517	495.182	907.744
3057.324	634.177	909.417	3064.056	382.707	936.409	0.000	0.000	0.000	3138.476	410.440	429.304	0.000	0.000	0.000	0.000	0.000	0.000	0.000	0.000	0.000	2902.613	495.398	910.149
3069.526	634.100	912.487	3076.458	382.371	937.951	0.000	0.000	0.000	3142.658	410.037	428.932	0.000	0.000	0.000	0.000	0.000	0.000	0.000	0.000	0.000	2914.601	495.656	912.768
3081.929	633.912	915.923	3089.093	382.050	939.828	0.000	0.000	0.000	3147.542	409.851	429.123	0.000	0.000	0.000	0.000	0.000	0.000	0.000	0.000	0.000	2927.097	496.436	915.175
3094.691	633.843	919.699	3102.031	381.754	941.942	0.000	0.000	0.000	3152.055	409.544	429.741	0.000	0.000	0.000	0.000	0.000	0.000	0.000	0.000	0.000	2940.498	497.123	917.544
3106.811	633.537	923.304	3114.428	381.257	944.079	0.000	0.000	0.000	3155.597	409.032	429.918	0.000	0.000	0.000	0.000	0.000	0.000	0.000	0.000	0.000	2953.228	497.532	921.002
3119.730	633.280	927.434	3127.105	380.800	946.539	0.000	0.000	0.000	3160.129	408.714	431.276	0.000	0.000	0.000	0.000	0.000	0.000	0.000	0.000	0.000	2966.073	498.049	924.551
3132.337	633.069	931.548	3140.051	380.483	949.107	0.000	0.000	0.000	3164.217	408.196	432.595	0.000	0.000	0.000	0.000	0.000	0.000	0.000	0.000	0.000	2979.822	499.063	927.190
3145.034	632.841	935.670	3152.978	380.140	951.701	0.000	0.000	0.000	3168.772	407.755	434.487	0.000	0.000	0.000	0.000	0.000	0.000	0.000	0.000	0.000	2990.200	499.685	930.871
3158.025	632.729	940.223	3166.041	379.753	954.637	0.000	0.000	0.000	3172.811	407.121	436.366	0.000	0.000	0.000	0.000	0.000	0.000	0.000	0.000	0.000	3004.358	500.435	934.225
3170.656	632.504	944.500	3178.934	379.443	957.352	0.000	0.000	0.000	3177.779	406.652	439.065	0.000	0.000	0.000	0.000	0.000	0.000	0.000	0.000	0.000	3019.187	501.167	937.497
3183.553	632.437	949.210	0.000	0.000	0.000	0.000	0.000	0.000	3183.060	406.149	442.185	0.000	0.000	0.000	0.000	0.000	0.000	0.000	0.000	0.000	3031.582	501.735	940.932
3196.495	632.365	953.665	0.000	0.000	0.000	0.000	0.000	0.000	3187.982	405.422	445.440	0.000	0.000	0.000	0.000	0.000	0.000	0.000	0.000	0.000	3044.945	502.509	944.284
3209.120	632.271	958.290	0.000	0.000	0.000	0.000	0.000	0.000	3192.567	404.560	448.355	0.000	0.000	0.000	0.000	0.000	0.000	0.000	0.000	0.000	3059.763	502.738	948.757
3222.578	632.474	963.125	0.000	0.000	0.000	0.000	0.000	0.000	3197.546	403.830	451.666	0.000	0.000	0.000	0.000	0.000	0.000	0.000	0.000	0.000	3072.442	503.331	952.521
3235.053	632.410	967.535	0.000	0.000	0.000	0.000	0.000	0.000	3202.873	403.051	455.255	0.000	0.000	0.000	0.000	0.000	0.000	0.000	0.000	0.000	3085.818	503.646	957.104
3248.220	632.645	972.290	0.000	0.000	0.000	0.000	0.000	0.000	3208.704	402.397	459.091	0.000	0.000	0.000	0.000	0.000	0.000	0.000	0.000	0.000	3099.539	503.811	962.003
3261.239	632.755	976.691	0.000	0.000	0.000	0.000	0.000	0.000	3214.403	401.708	462.780	0.000	0.000	0.000	0.000	0.000	0.000	0.000	0.000	0.000	3113.257	503.950	966.713
3274.660	633.062	981.286	0.000	0.000	0.000	0.000	0.000	0.000	3220.883	401.170	466.922	0.000	0.000	0.000	0.000	0.000	0.000	0.000	0.000	0.000	3126.622	504.189	970.731
3287.517	633.154	985.115	0.000	0.000	0.000	0.000	0.000	0.000	3227.049	400.510	470.764	0.000	0.000	0.000	0.000	0.000	0.000	0.000	0.000	0.000	3142.002	504.025	975.524
3300.818	633.341	989.269	0.000	0.000	0.000	0.000	0.000	0.000	3232.844	399.791	474.338	0.000	0.000	0.000	0.000	0.000	0.000	0.000	0.000	0.000	3155.536	504.275	979.522
3314.275	633.639	992.956	0.000	0.000	0.000	0.000	0.000	0.000	3239.521	399.406	478.020	0.000	0.000	0.000	0.000	0.000	0.000	0.000	0.000	0.000	3171.040	503.815	984.276
3327.424	633.842	996.611	0.000	0.000	0.000	0.000	0.000	0.000	3246.301	399.068	481.689	0.000	0.000	0.000	0.000	0.000	0.000	0.000	0.000	0.000	3183.404	503.806	988.722
3340.683	634.005	999.914	0.000	0.000	0.000	0.000	0.000	0.000	3253.382	398.775	485.292	0.000	0.000	0.000	0.000	0.000	0.000	0.000	0.000	0.000	3199.236	503.532	993.173
3353.972	634.232	1002.905	0.000	0.000	0.000	0.000	0.000	0.000	3260.421	398.443	488.890	0.000	0.000	0.000	0.000	0.000	0.000	0.000	0.000	0.000	0.000	0.000	0.000
3367.067	634.356	1005.722	0.000	0.000	0.000	0.000	0.000	0.000	3267.902	398.223	492.085	0.000	0.000	0.000	0.000	0.000	0.000	0.000	0.000	0.000	0.000	0.000	0.000
3379.942	634.423	1008.243	0.000	0.000	0.000	0.000	0.000	0.000	3275.641	397.944	495.334	0.000	0.000	0.000	0.000	0.000	0.000	0.000	0.000	0.000	0.000	0.000	0.000
3393.526	634.673	1010.865	0.000	0.000	0.000	0.000	0.000	0.000	3284.432	397.741	498.750	0.000	0.000	0.000	0.000	0.000	0.000	0.000	0.000	0.000	0.000	0.000	0.000
3406.358	634.726	1012.767	0.000	0.000	0.000	0.000	0.000	0.000	3290.744	397.366	502.394	0.000	0.000	0.000	0.000	0.000	0.000	0.000	0.000	0.000	0.000	0.000	0.000
3419.898	635.009	1014.868	0.000	0.000	0.000	0.000	0.000	0.000	3295.489	396.854	506.111	0.000	0.000	0.000	0.000	0.000	0.000	0.000	0.000	0.000	0.000	0.000	0.000
3432.721	635.080	1016.554	0.000	0.000	0.000	0.000	0.000	0.000	3299.582	396.239	509.747	0.000	0.000	0.000	0.000	0.000	0.000	0.000	0.000	0.000	0.000	0.000	0.000
3445.978	635.383	1017.811	0.000	0.000	0.000	0.000	0.000	0.000	3303.937	395.555	513.149	0.000	0.000	0.000	0.000	0.000	0.000	0.000	0.000	0.000	0.000	0.000	0.000
3459.270	635.680	1019.272	0.000	0.000	0.000	0.000	0.000	0.000	3309.469	394.837	516.161	0.000	0.000	0.000	0.000	0.000	0.000	0.000	0.000	0.000	0.000	0.000	0.000
3472.682	636.003	1020.516	0.000	0.000	0.000	0.000	0.000	0.000	3317.090	394.120	518.629	0.000	0.000	0.000	0.000	0.000	0.000	0.000	0.000	0.000	0.000	0.000	0.000
3485.807	636.303	1021.300	0.000	0.000	0.000	0.000	0.000	0.000	3327.715	393.436	520.399	0.000	0.000	0.000	0.000	0.000	0.000	0.000	0.000	0.000	0.000	0.000	0.000
0.000	0.000	0.000	0.000	0.000	0.000	0.000	0.000	0.000	3338.704	392.630	521.991	0.000	0.000	0.000	0.000	0.000	0.000	0.000	0.000	0.000	0.000	0.000	0.000
0.000	0.000	0.000	0.000	0.000	0.000	0.000	0.000	0.000	3349.246	392.183	522.516	0.000	0.000	0.000	0.000	0.000	0.000	0.000	0.000	0.000	0.000	0.000	0.000
