NO_OF_FRAMES	1200
NO_OF_CAMERAS	12
NO_OF_MARKERS	9
FREQUENCY	240
NO_OF_ANALOG	0
ANALOG_FREQUENCY	0
DESCRIPTION	--
TIME_STAMP	2020-02-08, 11:54:14	228332.83923580
DATA_INCLUDED	3D
MARKER_NAMES	ASISL	ASISR	medialKnee	lateralKnee	medialMalleolus	lateralMalleolus	heel	toe	sacral
ASISL X	ASISL Y	ASISL Z	ASISR X	ASISR Y	ASISR Z	medialKnee X	medialKnee Y	medialKnee Z	lateralKnee X	lateralKnee Y	lateralKnee Z	medialMalleolus X	medialMalleolus Y	medialMalleolus Z	lateralMalleolus X	lateralMalleolus Y	lateralMalleolus Z	heel X	heel Y	heel Z	toe X	toe Y	toe Z	sacral X	sacral Y	sacral Z	
0.000	0.000	0.000	0.000	0.000	0.000	0.000	0.000	0.000	0.000	0.000	0.000	0.000	0.000	0.000	0.000	0.000	0.000	0.000	0.000	0.000	0.000	0.000	0.000	0.000	0.000	0.000
0.000	0.000	0.000	0.000	0.000	0.000	0.000	0.000	0.000	0.000	0.000	0.000	0.000	0.000	0.000	0.000	0.000	0.000	0.000	0.000	0.000	0.000	0.000	0.000	0.000	0.000	0.000
0.000	0.000	0.000	0.000	0.000	0.000	0.000	0.000	0.000	0.000	0.000	0.000	0.000	0.000	0.000	0.000	0.000	0.000	0.000	0.000	0.000	0.000	0.000	0.000	0.000	0.000	0.000
0.000	0.000	0.000	0.000	0.000	0.000	0.000	0.000	0.000	0.000	0.000	0.000	0.000	0.000	0.000	0.000	0.000	0.000	0.000	0.000	0.000	0.000	0.000	0.000	0.000	0.000	0.000
0.000	0.000	0.000	0.000	0.000	0.000	0.000	0.000	0.000	0.000	0.000	0.000	0.000	0.000	0.000	0.000	0.000	0.000	0.000	0.000	0.000	0.000	0.000	0.000	0.000	0.000	0.000
0.000	0.000	0.000	0.000	0.000	0.000	0.000	0.000	0.000	0.000	0.000	0.000	0.000	0.000	0.000	0.000	0.000	0.000	0.000	0.000	0.000	0.000	0.000	0.000	0.000	0.000	0.000
0.000	0.000	0.000	0.000	0.000	0.000	0.000	0.000	0.000	0.000	0.000	0.000	0.000	0.000	0.000	0.000	0.000	0.000	0.000	0.000	0.000	0.000	0.000	0.000	0.000	0.000	0.000
0.000	0.000	0.000	0.000	0.000	0.000	0.000	0.000	0.000	0.000	0.000	0.000	0.000	0.000	0.000	0.000	0.000	0.000	0.000	0.000	0.000	0.000	0.000	0.000	0.000	0.000	0.000
0.000	0.000	0.000	0.000	0.000	0.000	0.000	0.000	0.000	0.000	0.000	0.000	0.000	0.000	0.000	0.000	0.000	0.000	0.000	0.000	0.000	0.000	0.000	0.000	0.000	0.000	0.000
0.000	0.000	0.000	0.000	0.000	0.000	0.000	0.000	0.000	0.000	0.000	0.000	0.000	0.000	0.000	0.000	0.000	0.000	0.000	0.000	0.000	0.000	0.000	0.000	0.000	0.000	0.000
0.000	0.000	0.000	0.000	0.000	0.000	0.000	0.000	0.000	0.000	0.000	0.000	0.000	0.000	0.000	0.000	0.000	0.000	0.000	0.000	0.000	0.000	0.000	0.000	0.000	0.000	0.000
0.000	0.000	0.000	0.000	0.000	0.000	0.000	0.000	0.000	0.000	0.000	0.000	0.000	0.000	0.000	0.000	0.000	0.000	0.000	0.000	0.000	0.000	0.000	0.000	0.000	0.000	0.000
0.000	0.000	0.000	0.000	0.000	0.000	0.000	0.000	0.000	0.000	0.000	0.000	0.000	0.000	0.000	0.000	0.000	0.000	0.000	0.000	0.000	0.000	0.000	0.000	0.000	0.000	0.000
0.000	0.000	0.000	0.000	0.000	0.000	0.000	0.000	0.000	0.000	0.000	0.000	0.000	0.000	0.000	0.000	0.000	0.000	0.000	0.000	0.000	0.000	0.000	0.000	0.000	0.000	0.000
0.000	0.000	0.000	0.000	0.000	0.000	0.000	0.000	0.000	0.000	0.000	0.000	0.000	0.000	0.000	0.000	0.000	0.000	0.000	0.000	0.000	0.000	0.000	0.000	0.000	0.000	0.000
0.000	0.000	0.000	0.000	0.000	0.000	0.000	0.000	0.000	0.000	0.000	0.000	0.000	0.000	0.000	0.000	0.000	0.000	0.000	0.000	0.000	0.000	0.000	0.000	0.000	0.000	0.000
0.000	0.000	0.000	0.000	0.000	0.000	0.000	0.000	0.000	0.000	0.000	0.000	0.000	0.000	0.000	0.000	0.000	0.000	0.000	0.000	0.000	0.000	0.000	0.000	0.000	0.000	0.000
0.000	0.000	0.000	0.000	0.000	0.000	0.000	0.000	0.000	0.000	0.000	0.000	0.000	0.000	0.000	0.000	0.000	0.000	0.000	0.000	0.000	0.000	0.000	0.000	0.000	0.000	0.000
0.000	0.000	0.000	0.000	0.000	0.000	0.000	0.000	0.000	0.000	0.000	0.000	0.000	0.000	0.000	0.000	0.000	0.000	0.000	0.000	0.000	0.000	0.000	0.000	0.000	0.000	0.000
0.000	0.000	0.000	0.000	0.000	0.000	0.000	0.000	0.000	0.000	0.000	0.000	0.000	0.000	0.000	0.000	0.000	0.000	0.000	0.000	0.000	0.000	0.000	0.000	0.000	0.000	0.000
0.000	0.000	0.000	0.000	0.000	0.000	0.000	0.000	0.000	0.000	0.000	0.000	0.000	0.000	0.000	0.000	0.000	0.000	0.000	0.000	0.000	0.000	0.000	0.000	0.000	0.000	0.000
0.000	0.000	0.000	0.000	0.000	0.000	0.000	0.000	0.000	0.000	0.000	0.000	0.000	0.000	0.000	0.000	0.000	0.000	0.000	0.000	0.000	0.000	0.000	0.000	0.000	0.000	0.000
0.000	0.000	0.000	0.000	0.000	0.000	0.000	0.000	0.000	0.000	0.000	0.000	0.000	0.000	0.000	0.000	0.000	0.000	0.000	0.000	0.000	0.000	0.000	0.000	0.000	0.000	0.000
0.000	0.000	0.000	0.000	0.000	0.000	0.000	0.000	0.000	0.000	0.000	0.000	0.000	0.000	0.000	0.000	0.000	0.000	0.000	0.000	0.000	0.000	0.000	0.000	0.000	0.000	0.000
0.000	0.000	0.000	0.000	0.000	0.000	0.000	0.000	0.000	0.000	0.000	0.000	0.000	0.000	0.000	0.000	0.000	0.000	0.000	0.000	0.000	0.000	0.000	0.000	0.000	0.000	0.000
0.000	0.000	0.000	0.000	0.000	0.000	0.000	0.000	0.000	0.000	0.000	0.000	0.000	0.000	0.000	0.000	0.000	0.000	0.000	0.000	0.000	0.000	0.000	0.000	0.000	0.000	0.000
0.000	0.000	0.000	0.000	0.000	0.000	0.000	0.000	0.000	0.000	0.000	0.000	0.000	0.000	0.000	0.000	0.000	0.000	0.000	0.000	0.000	0.000	0.000	0.000	0.000	0.000	0.000
0.000	0.000	0.000	0.000	0.000	0.000	0.000	0.000	0.000	0.000	0.000	0.000	0.000	0.000	0.000	0.000	0.000	0.000	0.000	0.000	0.000	0.000	0.000	0.000	0.000	0.000	0.000
0.000	0.000	0.000	0.000	0.000	0.000	0.000	0.000	0.000	0.000	0.000	0.000	0.000	0.000	0.000	0.000	0.000	0.000	0.000	0.000	0.000	0.000	0.000	0.000	0.000	0.000	0.000
0.000	0.000	0.000	0.000	0.000	0.000	0.000	0.000	0.000	0.000	0.000	0.000	0.000	0.000	0.000	0.000	0.000	0.000	0.000	0.000	0.000	0.000	0.000	0.000	0.000	0.000	0.000
0.000	0.000	0.000	0.000	0.000	0.000	0.000	0.000	0.000	0.000	0.000	0.000	0.000	0.000	0.000	0.000	0.000	0.000	0.000	0.000	0.000	0.000	0.000	0.000	0.000	0.000	0.000
0.000	0.000	0.000	0.000	0.000	0.000	0.000	0.000	0.000	0.000	0.000	0.000	0.000	0.000	0.000	0.000	0.000	0.000	0.000	0.000	0.000	0.000	0.000	0.000	0.000	0.000	0.000
0.000	0.000	0.000	0.000	0.000	0.000	0.000	0.000	0.000	0.000	0.000	0.000	0.000	0.000	0.000	0.000	0.000	0.000	0.000	0.000	0.000	0.000	0.000	0.000	0.000	0.000	0.000
0.000	0.000	0.000	0.000	0.000	0.000	0.000	0.000	0.000	0.000	0.000	0.000	0.000	0.000	0.000	0.000	0.000	0.000	0.000	0.000	0.000	0.000	0.000	0.000	0.000	0.000	0.000
0.000	0.000	0.000	0.000	0.000	0.000	0.000	0.000	0.000	0.000	0.000	0.000	0.000	0.000	0.000	0.000	0.000	0.000	0.000	0.000	0.000	0.000	0.000	0.000	0.000	0.000	0.000
0.000	0.000	0.000	0.000	0.000	0.000	0.000	0.000	0.000	0.000	0.000	0.000	0.000	0.000	0.000	0.000	0.000	0.000	0.000	0.000	0.000	0.000	0.000	0.000	0.000	0.000	0.000
0.000	0.000	0.000	0.000	0.000	0.000	0.000	0.000	0.000	0.000	0.000	0.000	0.000	0.000	0.000	0.000	0.000	0.000	0.000	0.000	0.000	0.000	0.000	0.000	0.000	0.000	0.000
0.000	0.000	0.000	0.000	0.000	0.000	0.000	0.000	0.000	0.000	0.000	0.000	0.000	0.000	0.000	0.000	0.000	0.000	0.000	0.000	0.000	0.000	0.000	0.000	0.000	0.000	0.000
0.000	0.000	0.000	0.000	0.000	0.000	0.000	0.000	0.000	0.000	0.000	0.000	0.000	0.000	0.000	0.000	0.000	0.000	0.000	0.000	0.000	0.000	0.000	0.000	0.000	0.000	0.000
0.000	0.000	0.000	0.000	0.000	0.000	0.000	0.000	0.000	0.000	0.000	0.000	0.000	0.000	0.000	0.000	0.000	0.000	0.000	0.000	0.000	0.000	0.000	0.000	0.000	0.000	0.000
0.000	0.000	0.000	0.000	0.000	0.000	0.000	0.000	0.000	0.000	0.000	0.000	0.000	0.000	0.000	0.000	0.000	0.000	0.000	0.000	0.000	0.000	0.000	0.000	0.000	0.000	0.000
0.000	0.000	0.000	0.000	0.000	0.000	0.000	0.000	0.000	0.000	0.000	0.000	0.000	0.000	0.000	0.000	0.000	0.000	0.000	0.000	0.000	0.000	0.000	0.000	0.000	0.000	0.000
0.000	0.000	0.000	0.000	0.000	0.000	0.000	0.000	0.000	0.000	0.000	0.000	0.000	0.000	0.000	0.000	0.000	0.000	0.000	0.000	0.000	0.000	0.000	0.000	0.000	0.000	0.000
0.000	0.000	0.000	0.000	0.000	0.000	0.000	0.000	0.000	0.000	0.000	0.000	0.000	0.000	0.000	0.000	0.000	0.000	0.000	0.000	0.000	0.000	0.000	0.000	0.000	0.000	0.000
0.000	0.000	0.000	0.000	0.000	0.000	0.000	0.000	0.000	0.000	0.000	0.000	0.000	0.000	0.000	0.000	0.000	0.000	0.000	0.000	0.000	0.000	0.000	0.000	0.000	0.000	0.000
0.000	0.000	0.000	0.000	0.000	0.000	0.000	0.000	0.000	0.000	0.000	0.000	0.000	0.000	0.000	0.000	0.000	0.000	0.000	0.000	0.000	0.000	0.000	0.000	0.000	0.000	0.000
0.000	0.000	0.000	0.000	0.000	0.000	0.000	0.000	0.000	0.000	0.000	0.000	0.000	0.000	0.000	0.000	0.000	0.000	0.000	0.000	0.000	0.000	0.000	0.000	0.000	0.000	0.000
0.000	0.000	0.000	0.000	0.000	0.000	0.000	0.000	0.000	0.000	0.000	0.000	0.000	0.000	0.000	0.000	0.000	0.000	0.000	0.000	0.000	0.000	0.000	0.000	0.000	0.000	0.000
0.000	0.000	0.000	0.000	0.000	0.000	-4210.116	702.423	499.391	0.000	0.000	0.000	0.000	0.000	0.000	0.000	0.000	0.000	0.000	0.000	0.000	0.000	0.000	0.000	0.000	0.000	0.000
0.000	0.000	0.000	0.000	0.000	0.000	-4199.475	700.190	493.014	0.000	0.000	0.000	0.000	0.000	0.000	0.000	0.000	0.000	0.000	0.000	0.000	0.000	0.000	0.000	0.000	0.000	0.000
0.000	0.000	0.000	0.000	0.000	0.000	-4183.015	697.893	488.805	0.000	0.000	0.000	0.000	0.000	0.000	0.000	0.000	0.000	0.000	0.000	0.000	0.000	0.000	0.000	0.000	0.000	0.000
0.000	0.000	0.000	0.000	0.000	0.000	-4167.339	695.889	484.841	0.000	0.000	0.000	0.000	0.000	0.000	0.000	0.000	0.000	0.000	0.000	0.000	0.000	0.000	0.000	0.000	0.000	0.000
0.000	0.000	0.000	0.000	0.000	0.000	-4174.232	688.892	473.107	0.000	0.000	0.000	0.000	0.000	0.000	0.000	0.000	0.000	0.000	0.000	0.000	0.000	0.000	0.000	0.000	0.000	0.000
0.000	0.000	0.000	0.000	0.000	0.000	-4157.718	689.037	473.606	0.000	0.000	0.000	0.000	0.000	0.000	0.000	0.000	0.000	0.000	0.000	0.000	0.000	0.000	0.000	0.000	0.000	0.000
0.000	0.000	0.000	0.000	0.000	0.000	-4144.434	692.174	477.618	0.000	0.000	0.000	0.000	0.000	0.000	0.000	0.000	0.000	0.000	0.000	0.000	0.000	0.000	0.000	0.000	0.000	0.000
0.000	0.000	0.000	0.000	0.000	0.000	-4122.228	687.846	472.491	0.000	0.000	0.000	0.000	0.000	0.000	0.000	0.000	0.000	0.000	0.000	0.000	0.000	0.000	0.000	0.000	0.000	0.000
0.000	0.000	0.000	0.000	0.000	0.000	-4104.801	687.405	472.290	0.000	0.000	0.000	0.000	0.000	0.000	0.000	0.000	0.000	0.000	0.000	0.000	0.000	0.000	0.000	0.000	0.000	0.000
0.000	0.000	0.000	0.000	0.000	0.000	-4087.589	687.230	472.623	0.000	0.000	0.000	0.000	0.000	0.000	0.000	0.000	0.000	0.000	0.000	0.000	0.000	0.000	0.000	0.000	0.000	0.000
0.000	0.000	0.000	0.000	0.000	0.000	-4072.584	686.588	468.661	0.000	0.000	0.000	0.000	0.000	0.000	0.000	0.000	0.000	0.000	0.000	0.000	0.000	0.000	0.000	0.000	0.000	0.000
0.000	0.000	0.000	0.000	0.000	0.000	-4057.615	686.123	475.325	0.000	0.000	0.000	0.000	0.000	0.000	0.000	0.000	0.000	0.000	0.000	0.000	0.000	0.000	0.000	0.000	0.000	0.000
0.000	0.000	0.000	0.000	0.000	0.000	-4040.366	685.758	482.320	0.000	0.000	0.000	0.000	0.000	0.000	0.000	0.000	0.000	0.000	0.000	0.000	0.000	0.000	0.000	0.000	0.000	0.000
0.000	0.000	0.000	0.000	0.000	0.000	-4018.516	685.412	479.348	0.000	0.000	0.000	0.000	0.000	0.000	0.000	0.000	0.000	0.000	0.000	0.000	0.000	0.000	0.000	0.000	0.000	0.000
0.000	0.000	0.000	0.000	0.000	0.000	-4006.744	686.154	483.832	0.000	0.000	0.000	0.000	0.000	0.000	0.000	0.000	0.000	0.000	0.000	0.000	0.000	0.000	0.000	0.000	0.000	0.000
0.000	0.000	0.000	0.000	0.000	0.000	-3990.074	688.123	485.625	-4014.836	557.749	523.620	0.000	0.000	0.000	0.000	0.000	0.000	0.000	0.000	0.000	0.000	0.000	0.000	0.000	0.000	0.000
0.000	0.000	0.000	0.000	0.000	0.000	-3972.610	687.974	486.418	-3996.479	557.555	525.334	0.000	0.000	0.000	0.000	0.000	0.000	0.000	0.000	0.000	0.000	0.000	0.000	0.000	0.000	0.000
0.000	0.000	0.000	0.000	0.000	0.000	-3956.283	688.203	488.323	-3982.501	558.222	524.025	0.000	0.000	0.000	0.000	0.000	0.000	0.000	0.000	0.000	0.000	0.000	0.000	0.000	0.000	0.000
0.000	0.000	0.000	0.000	0.000	0.000	-3938.905	688.828	490.728	-3962.293	557.848	525.871	0.000	0.000	0.000	0.000	0.000	0.000	0.000	0.000	0.000	0.000	0.000	0.000	0.000	0.000	0.000
0.000	0.000	0.000	0.000	0.000	0.000	-3921.992	689.326	493.752	-3945.699	558.237	527.381	0.000	0.000	0.000	0.000	0.000	0.000	0.000	0.000	0.000	0.000	0.000	0.000	0.000	0.000	0.000
0.000	0.000	0.000	0.000	0.000	0.000	-3906.871	690.410	496.269	-3924.647	558.755	526.050	0.000	0.000	0.000	0.000	0.000	0.000	0.000	0.000	0.000	0.000	0.000	0.000	0.000	0.000	0.000
0.000	0.000	0.000	0.000	0.000	0.000	-3893.331	692.419	499.219	-3908.179	558.436	531.852	0.000	0.000	0.000	0.000	0.000	0.000	0.000	0.000	0.000	0.000	0.000	0.000	0.000	0.000	0.000
0.000	0.000	0.000	0.000	0.000	0.000	-3877.413	693.265	502.665	-3893.735	559.461	533.920	0.000	0.000	0.000	0.000	0.000	0.000	0.000	0.000	0.000	0.000	0.000	0.000	0.000	0.000	0.000
0.000	0.000	0.000	0.000	0.000	0.000	-3860.330	693.401	507.057	-3878.153	560.196	536.973	-4208.786	680.415	353.571	0.000	0.000	0.000	0.000	0.000	0.000	0.000	0.000	0.000	0.000	0.000	0.000
0.000	0.000	0.000	0.000	0.000	0.000	-3844.878	694.240	511.153	-3865.476	561.466	539.459	-4200.384	680.763	348.630	0.000	0.000	0.000	0.000	0.000	0.000	-4190.582	652.649	115.551	0.000	0.000	0.000
0.000	0.000	0.000	0.000	0.000	0.000	-3827.910	693.613	515.052	-3845.319	562.496	537.908	-4186.998	681.168	344.654	0.000	0.000	0.000	0.000	0.000	0.000	-4167.711	653.807	113.353	0.000	0.000	0.000
0.000	0.000	0.000	0.000	0.000	0.000	-3812.375	694.214	519.527	-3830.960	562.501	544.547	-4167.779	683.038	340.631	0.000	0.000	0.000	0.000	0.000	0.000	-4145.240	654.758	111.774	0.000	0.000	0.000
0.000	0.000	0.000	0.000	0.000	0.000	-3798.688	695.838	524.595	-3824.254	563.617	549.120	-4148.467	683.845	338.331	0.000	0.000	0.000	0.000	0.000	0.000	-4119.111	656.415	109.308	0.000	0.000	0.000
0.000	0.000	0.000	0.000	0.000	0.000	-3785.319	697.146	529.047	-3802.184	563.879	553.830	-4129.982	684.824	335.033	0.000	0.000	0.000	0.000	0.000	0.000	-4094.625	657.523	106.678	0.000	0.000	0.000
0.000	0.000	0.000	0.000	0.000	0.000	-3769.683	697.055	534.092	-3808.415	565.513	556.997	-4112.898	684.961	332.070	0.000	0.000	0.000	0.000	0.000	0.000	-4092.813	657.813	105.443	0.000	0.000	0.000
0.000	0.000	0.000	0.000	0.000	0.000	-3753.536	697.180	539.151	-3792.474	565.870	561.057	-4109.816	682.254	326.376	0.000	0.000	0.000	0.000	0.000	0.000	-4067.164	658.567	103.050	0.000	0.000	0.000
0.000	0.000	0.000	0.000	0.000	0.000	-3740.366	698.240	543.606	-3779.376	566.910	566.154	-4093.027	683.266	322.228	0.000	0.000	0.000	0.000	0.000	0.000	-4044.113	659.916	100.817	0.000	0.000	0.000
0.000	0.000	0.000	0.000	0.000	0.000	-3726.432	698.681	548.795	-3765.678	567.523	570.518	-4077.104	683.899	320.431	0.000	0.000	0.000	0.000	0.000	0.000	-4018.056	659.523	99.077	0.000	0.000	0.000
0.000	0.000	0.000	0.000	0.000	0.000	-3712.704	699.064	553.755	-3752.548	568.306	574.636	-4057.179	685.616	312.659	0.000	0.000	0.000	0.000	0.000	0.000	-3990.241	658.262	97.419	0.000	0.000	0.000
0.000	0.000	0.000	0.000	0.000	0.000	-3699.444	699.167	558.253	-3739.724	568.865	579.355	-4040.303	686.320	311.161	0.000	0.000	0.000	0.000	0.000	0.000	-3964.685	657.942	95.435	0.000	0.000	0.000
0.000	0.000	0.000	0.000	0.000	0.000	-3687.189	700.138	563.172	-3726.901	569.356	583.849	-4025.755	689.022	303.363	0.000	0.000	0.000	0.000	0.000	0.000	-3941.282	658.184	93.056	0.000	0.000	0.000
0.000	0.000	0.000	0.000	0.000	0.000	-3674.909	700.472	567.932	-3715.144	570.323	587.603	-4001.524	688.543	301.952	0.000	0.000	0.000	0.000	0.000	0.000	-3916.390	657.698	91.550	0.000	0.000	0.000
0.000	0.000	0.000	0.000	0.000	0.000	-3663.061	700.848	572.706	-3703.057	570.647	591.210	-3986.645	690.820	295.689	0.000	0.000	0.000	0.000	0.000	0.000	-3891.394	656.999	89.856	0.000	0.000	0.000
0.000	0.000	0.000	0.000	0.000	0.000	-3650.788	700.930	577.190	-3692.088	571.435	595.934	-3963.395	691.627	291.413	0.000	0.000	0.000	0.000	0.000	0.000	-3865.815	655.809	87.837	0.000	0.000	0.000
0.000	0.000	0.000	0.000	0.000	0.000	-3640.283	701.524	581.104	-3681.338	572.436	599.353	-3956.339	694.252	283.190	0.000	0.000	0.000	0.000	0.000	0.000	-3840.309	654.980	86.734	0.000	0.000	0.000
0.000	0.000	0.000	0.000	0.000	0.000	-3628.546	701.306	585.003	-3670.664	573.401	602.629	-3935.971	694.921	277.936	0.000	0.000	0.000	0.000	0.000	0.000	-3814.373	653.899	85.355	0.000	0.000	0.000
0.000	0.000	0.000	0.000	0.000	0.000	-3618.210	701.845	589.517	-3658.987	573.344	606.245	-3916.754	696.857	273.104	0.000	0.000	0.000	0.000	0.000	0.000	-3788.784	653.028	84.342	0.000	0.000	0.000
0.000	0.000	0.000	0.000	0.000	0.000	-3607.603	701.854	593.347	-3649.282	574.357	610.307	-3896.735	698.003	268.022	0.000	0.000	0.000	0.000	0.000	0.000	-3763.495	652.394	83.108	0.000	0.000	0.000
0.000	0.000	0.000	0.000	0.000	0.000	-3597.430	702.138	596.991	-3639.303	575.143	612.968	-3876.512	698.895	262.984	0.000	0.000	0.000	0.000	0.000	0.000	-3737.347	651.708	82.852	0.000	0.000	0.000
0.000	0.000	0.000	0.000	0.000	0.000	-3587.696	702.079	600.124	-3629.274	575.653	615.930	-3858.458	700.833	257.038	0.000	0.000	0.000	0.000	0.000	0.000	-3712.864	651.750	82.032	0.000	0.000	0.000
0.000	0.000	0.000	0.000	0.000	0.000	-3577.072	701.349	603.834	-3620.193	576.468	618.311	-3836.535	701.168	252.590	0.000	0.000	0.000	0.000	0.000	0.000	-3687.636	651.788	81.200	0.000	0.000	0.000
0.000	0.000	0.000	0.000	0.000	0.000	-3567.369	701.138	606.948	-3610.740	577.082	620.850	-3816.362	702.281	247.492	0.000	0.000	0.000	0.000	0.000	0.000	-3660.625	651.062	81.759	0.000	0.000	0.000
0.000	0.000	0.000	0.000	0.000	0.000	-3557.886	700.758	609.630	-3602.248	577.611	622.912	-3797.526	703.727	242.317	0.000	0.000	0.000	0.000	0.000	0.000	-3635.603	651.531	81.579	0.000	0.000	0.000
0.000	0.000	0.000	0.000	0.000	0.000	-3548.899	700.501	612.518	-3592.710	577.668	624.803	-3776.941	704.164	237.360	0.000	0.000	0.000	0.000	0.000	0.000	-3611.179	652.388	82.293	0.000	0.000	0.000
0.000	0.000	0.000	0.000	0.000	0.000	-3540.334	700.501	614.500	-3584.271	578.404	626.624	-3757.243	705.041	232.926	0.000	0.000	0.000	0.000	0.000	0.000	-3586.219	653.223	82.421	0.000	0.000	0.000
0.000	0.000	0.000	0.000	0.000	0.000	-3531.758	700.304	616.830	-3575.195	578.434	628.220	-3737.583	705.819	228.333	0.000	0.000	0.000	0.000	0.000	0.000	-3561.769	654.514	83.555	0.000	0.000	0.000
0.000	0.000	0.000	0.000	0.000	0.000	-3523.392	700.214	618.137	-3566.073	578.128	629.532	-3717.309	706.209	224.251	0.000	0.000	0.000	0.000	0.000	0.000	-3536.444	655.161	85.144	0.000	0.000	0.000
0.000	0.000	0.000	0.000	0.000	0.000	-3514.867	700.040	619.166	-3558.140	578.758	630.634	-3698.297	707.207	220.177	0.000	0.000	0.000	0.000	0.000	0.000	-3512.938	657.164	86.690	0.000	0.000	0.000
0.000	0.000	0.000	0.000	0.000	0.000	-3506.559	700.016	620.239	-3549.970	579.131	631.207	-3677.704	707.355	216.404	0.000	0.000	0.000	0.000	0.000	0.000	-3489.549	658.987	88.557	0.000	0.000	0.000
0.000	0.000	0.000	0.000	0.000	0.000	-3497.803	699.729	621.100	-3542.135	579.725	631.712	-3658.146	707.825	212.944	0.000	0.000	0.000	0.000	0.000	0.000	-3464.784	660.219	91.241	0.000	0.000	0.000
0.000	0.000	0.000	0.000	0.000	0.000	-3490.247	700.131	621.426	-3533.975	580.051	631.342	-3638.847	708.135	209.807	0.000	0.000	0.000	0.000	0.000	0.000	-3443.796	666.017	92.223	0.000	0.000	0.000
0.000	0.000	0.000	0.000	0.000	0.000	-3481.768	699.962	621.014	-3526.147	580.599	630.746	-3619.148	708.262	206.530	0.000	0.000	0.000	0.000	0.000	0.000	-3420.992	667.847	94.874	0.000	0.000	0.000
0.000	0.000	0.000	0.000	0.000	0.000	-3473.379	700.090	621.643	-3517.533	580.812	630.744	-3602.232	712.348	202.191	0.000	0.000	0.000	0.000	0.000	0.000	-3398.715	669.723	97.529	0.000	0.000	0.000
0.000	0.000	0.000	0.000	0.000	0.000	-3464.790	699.872	621.871	-3508.508	581.000	630.555	-3583.770	712.450	199.476	0.000	0.000	0.000	0.000	0.000	0.000	-3376.568	671.331	100.373	0.000	0.000	0.000
0.000	0.000	0.000	0.000	0.000	0.000	-3456.634	700.169	621.496	-3500.681	581.591	629.250	-3565.571	712.468	196.901	0.000	0.000	0.000	0.000	0.000	0.000	-3355.665	673.257	103.261	0.000	0.000	0.000
0.000	0.000	0.000	-3561.218	584.616	1096.043	-3449.306	700.723	620.494	-3493.630	582.444	628.480	-3547.934	711.878	194.585	0.000	0.000	0.000	0.000	0.000	0.000	-3335.719	674.742	106.524	0.000	0.000	0.000
0.000	0.000	0.000	-3545.188	587.614	1089.387	-3440.142	700.502	619.977	-3485.492	583.003	627.153	-3530.691	711.644	192.517	0.000	0.000	0.000	0.000	0.000	0.000	-3316.136	676.498	109.210	0.000	0.000	0.000
0.000	0.000	0.000	-3540.222	584.519	1092.816	-3432.117	700.973	619.107	-3477.362	583.407	625.849	-3513.924	711.296	190.531	0.000	0.000	0.000	0.000	0.000	0.000	-3297.322	678.005	112.043	0.000	0.000	0.000
0.000	0.000	0.000	-3524.227	585.361	1092.010	-3424.569	701.523	617.764	-3468.800	583.552	625.147	-3497.519	710.917	188.519	0.000	0.000	0.000	0.000	0.000	0.000	-3278.951	679.298	114.518	-3716.275	737.731	1149.152
0.000	0.000	0.000	-3512.858	585.355	1092.213	-3416.656	702.305	616.887	-3461.799	584.562	623.305	-3481.566	710.395	186.760	0.000	0.000	0.000	0.000	0.000	0.000	-3261.261	680.244	116.841	-3704.959	737.636	1149.789
0.000	0.000	0.000	-3509.310	581.651	1096.707	-3409.314	703.163	614.669	-3453.496	585.055	622.020	-3466.130	709.958	184.792	0.000	0.000	0.000	0.000	0.000	0.000	-3244.606	681.142	119.093	-3693.576	737.508	1150.078
0.000	0.000	0.000	-3500.454	580.339	1099.839	-3402.722	704.414	613.271	-3445.866	585.708	620.100	-3451.457	709.484	183.295	0.000	0.000	0.000	0.000	0.000	0.000	-3228.635	681.932	121.089	-3682.208	737.365	1150.482
0.000	0.000	0.000	-3489.900	579.054	1100.561	-3393.901	704.796	611.404	-3436.744	585.677	618.837	-3436.931	708.978	181.346	0.000	0.000	0.000	0.000	0.000	0.000	-3213.259	682.280	122.827	-3670.951	737.182	1150.356
0.000	0.000	0.000	-3478.691	578.169	1099.096	-3386.069	705.469	609.731	-3428.744	586.355	617.220	-3423.651	708.787	180.302	0.000	0.000	0.000	0.000	0.000	0.000	-3198.549	682.397	124.373	-3659.825	736.852	1149.993
0.000	0.000	0.000	-3467.869	578.056	1095.670	-3378.536	706.267	607.936	-3420.276	586.688	615.056	-3410.339	708.404	178.353	0.000	0.000	0.000	0.000	0.000	0.000	-3184.726	682.380	125.821	-3648.820	736.431	1149.412
0.000	0.000	0.000	-3458.012	576.292	1098.357	-3371.322	707.264	605.379	-3410.611	586.418	613.159	-3397.737	708.179	176.625	0.000	0.000	0.000	0.000	0.000	0.000	-3171.340	682.071	126.461	-3637.848	736.018	1148.558
0.000	0.000	0.000	-3448.617	575.914	1097.786	-3364.171	708.131	603.461	-3401.537	586.602	611.968	-3385.635	708.013	174.594	0.000	0.000	0.000	0.000	0.000	0.000	-3158.919	681.560	127.111	-3627.063	735.508	1147.439
0.000	0.000	0.000	-3437.149	574.338	1096.291	-3356.632	708.617	601.381	-3393.262	587.038	609.467	-3374.301	707.913	173.139	0.000	0.000	0.000	0.000	0.000	0.000	-3144.538	679.750	126.117	-3616.388	734.981	1146.046
0.000	0.000	0.000	-3428.268	574.267	1094.902	-3349.007	708.996	599.011	-3383.408	586.777	608.230	-3363.286	707.857	171.223	0.000	0.000	0.000	0.000	0.000	0.000	-3133.308	679.116	125.954	-3605.976	734.366	1144.493
0.000	0.000	0.000	-3417.046	572.550	1093.449	-3341.023	709.288	597.006	-3373.618	586.669	605.853	-3352.786	707.757	169.144	0.000	0.000	0.000	0.000	0.000	0.000	-3124.945	679.579	125.683	-3595.618	733.682	1142.594
0.000	0.000	0.000	-3406.429	572.309	1089.086	-3334.023	709.775	594.353	-3364.670	586.740	603.053	-3341.917	707.513	166.176	0.000	0.000	0.000	0.000	0.000	0.000	-3112.739	677.602	123.581	-3585.487	732.883	1140.529
0.000	0.000	0.000	-3396.853	570.550	1089.494	-3325.169	709.447	592.298	-3353.985	586.098	600.225	-3332.460	707.190	163.752	0.000	0.000	0.000	0.000	0.000	0.000	-3103.123	676.942	121.646	-3575.389	732.100	1138.036
0.000	0.000	0.000	-3386.271	570.146	1085.010	-3317.056	709.362	589.782	-3345.311	586.589	597.813	-3320.989	705.455	159.950	0.000	0.000	0.000	0.000	0.000	0.000	-3094.336	676.247	119.423	-3565.401	731.226	1135.384
0.000	0.000	0.000	-3376.771	568.426	1085.397	-3308.925	709.241	586.746	-3335.256	586.055	595.113	-3312.366	704.955	157.366	0.000	0.000	0.000	0.000	0.000	0.000	-3086.128	675.758	116.687	-3555.446	730.320	1132.395
0.000	0.000	0.000	-3367.009	567.719	1082.249	-3299.237	708.387	584.060	-3325.522	585.844	591.798	-3306.529	705.722	155.730	0.000	0.000	0.000	0.000	0.000	0.000	-3079.374	675.284	112.695	-3545.605	729.350	1129.228
0.000	0.000	0.000	-3357.593	567.177	1078.690	-3290.723	707.900	581.260	-3315.114	585.094	588.802	-3296.552	703.651	151.358	0.000	0.000	0.000	0.000	0.000	0.000	-3072.215	674.751	105.814	-3535.845	728.350	1125.821
0.000	0.000	0.000	-3346.238	565.268	1076.065	-3280.589	706.850	578.617	-3305.158	584.681	585.497	-3292.094	704.117	149.059	0.000	0.000	0.000	0.000	0.000	0.000	-3065.768	673.684	99.454	-3526.063	727.337	1122.153
0.000	0.000	0.000	-3335.873	565.073	1070.597	-3271.249	705.992	575.306	-3294.939	583.872	582.264	-3285.309	703.141	145.224	0.000	0.000	0.000	0.000	0.000	0.000	-3060.645	672.755	91.947	-3516.295	726.375	1118.194
0.000	0.000	0.000	-3326.819	563.843	1068.856	-3261.033	704.606	572.418	-3285.715	583.543	578.329	-3279.218	702.760	141.693	0.000	0.000	0.000	0.000	0.000	0.000	-3056.513	671.407	82.269	-3506.655	725.334	1114.084
0.000	0.000	0.000	-3315.628	562.240	1065.482	-3249.675	702.943	569.132	-3276.920	583.063	574.050	-3274.517	703.799	138.277	0.000	0.000	0.000	0.000	0.000	0.000	-3053.958	673.497	74.220	-3497.019	724.316	1109.711
0.000	0.000	0.000	-3305.494	562.257	1058.238	-3239.163	701.839	565.186	-3267.593	582.108	569.936	-3272.767	705.785	134.427	0.000	0.000	0.000	0.000	0.000	0.000	-3052.191	676.211	69.834	-3487.436	723.314	1105.228
0.000	0.000	0.000	-3295.494	561.064	1056.057	-3229.001	701.251	560.680	-3259.297	581.715	565.391	-3274.142	707.834	131.193	0.000	0.000	0.000	0.000	0.000	0.000	-3055.026	676.586	70.946	-3477.999	722.368	1100.568
0.000	0.000	0.000	-3284.718	559.923	1052.550	-3217.052	700.030	555.855	-3250.559	581.471	560.873	-3276.058	709.643	128.747	0.000	0.000	0.000	0.000	0.000	0.000	-3055.695	675.389	72.792	-3468.753	721.504	1095.887
0.000	0.000	0.000	-3274.301	560.611	1044.702	-3204.974	698.427	551.478	-3242.223	581.812	556.657	-3277.686	711.176	127.367	0.000	0.000	0.000	0.000	0.000	0.000	-3057.962	678.523	73.854	-3459.874	720.709	1091.139
0.000	0.000	0.000	-3264.300	559.768	1042.385	-3193.890	697.581	546.254	-3232.420	582.049	552.652	-3277.853	712.253	127.159	0.000	0.000	0.000	0.000	0.000	0.000	-3056.133	678.297	70.417	-3451.324	719.925	1086.488
0.000	0.000	0.000	-3253.476	560.420	1034.984	-3183.507	697.209	541.232	-3221.913	582.474	549.795	-3275.870	713.157	127.499	0.000	0.000	0.000	0.000	0.000	0.000	-3054.601	677.152	67.299	-3443.081	719.195	1081.655
0.000	0.000	0.000	-3243.086	559.744	1032.631	-3171.339	696.065	537.222	-3210.674	582.855	548.643	-3272.903	714.259	127.756	0.000	0.000	0.000	0.000	0.000	0.000	-3051.749	676.729	65.904	-3435.025	718.370	1076.799
0.000	0.000	0.000	-3231.723	559.794	1026.837	-3161.391	695.692	534.996	-3199.369	583.184	547.495	-3270.117	715.372	127.656	0.000	0.000	0.000	0.000	0.000	0.000	-3052.573	678.132	64.755	-3427.127	717.510	1071.711
0.000	0.000	0.000	-3222.929	560.138	1023.238	-3152.041	695.662	535.010	-3188.670	583.345	546.957	-3268.756	716.132	127.554	0.000	0.000	0.000	0.000	0.000	0.000	-3052.511	678.386	63.966	-3419.457	716.619	1066.444
0.000	0.000	0.000	-3214.348	561.970	1021.535	-3142.756	696.373	535.976	-3180.010	584.012	545.494	-3268.164	716.387	127.801	0.000	0.000	0.000	0.000	0.000	0.000	-3050.152	677.561	63.028	-3411.757	715.548	1061.132
0.000	0.000	0.000	-3203.192	560.628	1018.875	-3133.950	697.506	537.550	-3169.193	583.618	544.746	-3267.695	716.421	128.231	0.000	0.000	0.000	0.000	0.000	0.000	-3049.715	677.458	62.103	-3401.902	714.101	1056.534
0.000	0.000	0.000	-3191.056	559.270	1015.126	-3125.769	698.753	539.027	-3160.498	583.922	543.288	-3266.601	716.312	128.249	0.000	0.000	0.000	0.000	0.000	0.000	-3049.211	677.403	61.171	-3391.698	713.735	1054.974
0.000	0.000	0.000	-3181.045	557.596	1012.740	-3118.492	700.075	539.567	-3151.161	584.142	542.166	-3265.476	716.862	128.067	0.000	0.000	0.000	0.000	0.000	0.000	-3050.754	678.396	61.120	-3382.622	713.863	1054.838
0.000	0.000	0.000	-3170.650	556.755	1009.815	-3110.441	700.522	539.715	-3142.817	584.739	540.270	-3258.520	713.666	131.072	0.000	0.000	0.000	0.000	0.000	0.000	-3050.914	678.639	60.681	-3373.422	713.936	1054.783
-3132.937	826.316	993.725	-3162.902	554.921	1009.304	-3104.330	700.925	538.779	-3133.386	584.686	539.359	-3253.306	713.170	131.528	0.000	0.000	0.000	0.000	0.000	0.000	-3050.692	678.721	60.173	-3363.634	714.290	1054.304
-3122.961	825.994	991.284	-3154.686	553.558	1009.043	-3098.519	701.074	536.968	-3126.336	585.152	537.511	-3252.424	713.162	131.978	0.000	0.000	0.000	0.000	0.000	0.000	-3048.804	677.796	59.435	-3353.644	714.930	1053.656
-3112.809	825.433	989.975	-3146.844	551.913	1009.604	-3091.823	700.284	534.548	-3119.266	585.046	535.973	-3251.398	713.185	132.241	0.000	0.000	0.000	0.000	0.000	0.000	-3048.529	677.784	58.828	-3343.617	715.779	1053.202
-3103.853	824.440	992.818	-3138.307	550.805	1009.564	-3086.746	699.866	531.962	-3112.866	584.473	534.570	-3250.703	713.120	132.604	0.000	0.000	0.000	0.000	0.000	0.000	-3048.546	677.809	58.521	-3333.509	716.534	1053.206
-3094.229	824.337	993.291	-3130.238	549.405	1009.889	-3081.025	698.857	529.276	-3108.025	583.903	532.645	-3249.675	713.064	133.212	0.000	0.000	0.000	0.000	0.000	0.000	-3050.222	678.770	58.562	-3323.416	717.102	1053.226
-3084.998	824.283	994.710	-3121.392	548.293	1009.679	-3075.389	697.873	526.880	-3102.946	582.784	531.510	-3248.728	712.956	133.996	0.000	0.000	0.000	0.000	0.000	0.000	-3050.508	678.925	58.227	-3313.229	717.501	1053.368
-3075.618	824.093	996.360	-3112.626	546.973	1009.646	-3069.970	696.746	524.419	-3098.829	581.770	529.717	-3248.118	712.841	134.940	0.000	0.000	0.000	0.000	0.000	0.000	-3050.482	679.100	57.755	-3303.201	717.553	1053.631
-3065.525	823.744	997.697	-3103.667	545.716	1009.538	-3064.529	695.362	521.926	-3094.994	580.999	528.768	-3247.105	712.830	135.768	0.000	0.000	0.000	0.000	0.000	0.000	-3049.150	677.567	58.115	-3293.094	717.426	1053.851
-3055.513	823.267	999.596	-3092.874	545.459	1008.128	-3058.999	693.960	519.370	-3091.128	579.853	527.483	-3246.301	712.802	136.860	0.000	0.000	0.000	0.000	0.000	0.000	-3045.522	676.281	58.301	-3282.939	716.946	1054.575
-3045.256	822.772	1001.469	-3077.799	547.562	1004.419	-3054.375	692.552	516.361	-3087.306	578.867	526.531	-3244.656	712.660	138.398	0.000	0.000	0.000	0.000	0.000	0.000	-3045.501	676.342	58.073	-3272.595	716.527	1055.538
-3034.829	822.245	1003.139	-3068.501	546.247	1004.631	-3050.903	693.077	512.693	-3084.285	578.030	525.997	-3243.395	712.528	139.874	0.000	0.000	0.000	0.000	0.000	0.000	-3045.435	676.378	57.719	-3262.212	716.050	1056.766
-3024.202	821.560	1005.241	-3058.060	545.685	1004.717	-3043.452	690.264	511.270	-3081.771	577.260	525.601	-3242.261	712.254	141.468	0.000	0.000	0.000	0.000	0.000	0.000	-3045.631	676.558	57.303	-3251.543	715.477	1057.958
-3013.675	821.040	1007.329	-3047.503	545.068	1004.815	-3029.163	687.885	509.383	-3078.305	576.018	526.135	-3241.207	711.934	142.713	0.000	0.000	0.000	0.000	0.000	0.000	-3045.573	676.615	57.096	-3240.812	714.678	1059.280
-3003.013	820.356	1009.938	-3038.843	543.150	1006.599	-3024.170	686.438	508.886	-3075.255	575.129	526.903	-3249.669	714.766	141.945	0.000	0.000	0.000	0.000	0.000	0.000	-3045.562	676.600	56.908	-3224.423	715.676	1059.839
-2992.114	819.867	1011.737	-3027.010	543.132	1006.478	-3020.464	685.592	509.749	-3072.555	574.414	527.789	-3247.781	714.404	143.773	0.000	0.000	0.000	0.000	0.000	0.000	-3045.605	676.661	56.675	-3212.989	714.282	1061.631
-2981.241	819.055	1014.116	-3017.211	541.754	1007.810	-3016.630	685.073	511.353	-3069.954	574.006	528.851	-3246.396	713.955	146.173	0.000	0.000	0.000	0.000	0.000	0.000	-3045.464	676.643	56.561	-3201.733	712.904	1063.403
-2970.030	818.318	1016.716	-3005.978	541.293	1008.698	-3012.758	684.720	513.655	-3069.794	574.993	530.020	-3244.350	713.271	148.045	0.000	0.000	0.000	0.000	0.000	0.000	-3045.450	676.651	56.459	-3190.448	711.610	1065.426
-2958.882	817.784	1019.230	-2994.350	541.384	1009.964	-3008.768	684.490	516.278	-3062.524	573.012	532.034	-3242.348	712.582	150.471	0.000	0.000	0.000	0.000	0.000	0.000	-3045.293	676.690	56.437	-3179.132	710.423	1067.622
-2947.720	817.016	1022.024	-2982.957	541.149	1011.401	-3004.787	684.206	518.876	-3063.661	574.774	534.532	-3240.268	711.735	153.255	0.000	0.000	0.000	0.000	0.000	0.000	-3045.238	676.724	56.450	-3167.755	709.291	1070.064
-2936.621	816.343	1024.985	-2971.625	540.850	1013.496	-3000.860	684.026	521.318	-3057.851	573.456	537.551	-3238.164	710.791	156.046	0.000	0.000	0.000	0.000	0.000	0.000	-3045.199	676.790	56.477	-3156.373	708.285	1072.550
-2925.608	815.879	1027.785	-2959.822	540.911	1015.489	-2996.686	683.491	523.316	-3052.246	572.204	540.570	-3235.615	709.928	158.876	0.000	0.000	0.000	0.000	0.000	0.000	-3048.430	678.507	55.022	-3144.994	707.352	1075.197
-2914.110	815.015	1030.896	-2946.800	541.697	1017.158	-2991.996	682.744	525.687	-3046.795	571.012	543.597	-3232.982	708.939	162.265	0.000	0.000	0.000	0.000	0.000	0.000	-3047.524	678.426	55.370	-3133.510	706.422	1077.893
-2903.168	814.584	1033.585	-2934.527	542.090	1019.393	-2987.717	682.145	527.668	-3041.445	569.874	546.638	-3229.685	707.760	165.444	0.000	0.000	0.000	0.000	0.000	0.000	-3047.485	678.418	55.458	-3122.033	705.618	1080.577
-2891.839	813.921	1036.383	-2924.766	541.089	1023.551	-2985.158	680.101	530.246	-3036.146	568.783	549.702	-3226.443	706.580	169.124	0.000	0.000	0.000	0.000	0.000	0.000	-3047.495	678.432	55.493	-3112.991	704.539	1082.895
-2880.657	813.388	1039.271	-2912.025	541.864	1025.974	-2981.020	679.627	532.795	-3030.846	567.734	552.795	-3222.880	705.358	172.790	0.000	0.000	0.000	0.000	0.000	0.000	-3047.515	678.435	55.508	-3101.663	703.775	1085.757
-2875.232	817.024	1042.348	-2898.983	542.853	1028.497	-2976.163	679.213	535.224	-3025.493	566.720	555.926	-3219.173	704.183	176.767	0.000	0.000	0.000	0.000	0.000	0.000	-3047.352	678.372	55.525	-3090.275	703.073	1088.611
-2858.495	812.455	1044.936	-2886.532	543.447	1031.709	-2979.061	680.054	536.838	-3020.036	565.736	559.100	-3214.679	702.800	180.201	0.000	0.000	0.000	0.000	0.000	0.000	-3047.334	678.295	55.454	-3078.801	702.355	1091.580
-2847.310	812.159	1047.397	-2871.354	545.953	1033.439	-2974.296	679.845	540.212	-3014.423	564.775	562.326	-3210.430	701.609	184.111	0.000	0.000	0.000	0.000	0.000	0.000	-3047.229	678.227	55.330	-3067.185	701.706	1094.378
-2842.549	816.442	1050.292	-2869.634	540.991	1042.461	-2968.139	679.332	543.682	-3008.603	563.831	565.612	-3205.825	700.257	187.817	0.000	0.000	0.000	0.000	0.000	0.000	-3046.921	678.071	55.157	-3055.633	701.101	1097.191
-2830.407	815.448	1053.262	-2856.248	541.397	1043.472	-2962.321	678.930	547.444	-3002.523	562.897	568.963	-3200.006	698.419	191.373	0.000	0.000	0.000	0.000	0.000	0.000	-3046.487	677.886	54.918	-3044.000	700.484	1099.962
-2819.602	815.454	1055.362	-2843.680	542.034	1046.568	-2955.360	678.325	550.978	-2996.134	561.969	572.389	-3194.787	696.861	195.471	0.000	0.000	0.000	0.000	0.000	0.000	-3046.296	677.746	54.760	-3032.387	699.849	1102.785
-2808.002	815.030	1058.133	-2830.989	542.738	1049.525	-2948.149	677.638	554.447	-2989.383	561.039	575.895	-3188.980	695.166	198.859	0.000	0.000	0.000	0.000	0.000	0.000	-3047.676	678.471	54.765	-3020.752	699.328	1105.472
-2797.123	814.812	1061.332	-2818.405	543.506	1052.328	-2941.340	677.096	557.559	-2982.218	560.102	579.490	-3182.567	693.366	201.902	0.000	0.000	0.000	0.000	0.000	0.000	-3047.062	678.134	54.480	-3009.133	698.778	1108.200
-2786.294	814.892	1063.597	-2805.747	544.387	1055.018	-2933.001	676.205	560.589	-2974.588	559.151	583.181	-3176.703	691.464	206.049	0.000	0.000	0.000	0.000	0.000	0.000	-3046.329	677.755	54.034	-2997.552	698.210	1110.826
-2774.887	814.528	1066.325	-2793.053	545.233	1057.603	-2924.763	675.363	563.119	-2966.442	558.180	586.975	-3170.173	689.583	209.633	0.000	0.000	0.000	0.000	0.000	0.000	-3045.231	677.396	53.526	-2985.942	697.652	1113.408
-2763.078	814.072	1069.185	-2780.337	546.104	1060.027	-2915.384	674.178	565.788	-2957.727	557.184	590.880	-3163.446	687.680	213.210	0.000	0.000	0.000	0.000	0.000	0.000	-3044.387	677.155	52.936	-2974.220	697.003	1115.994
-2752.208	813.981	1071.731	-2767.776	546.731	1062.332	-2905.947	673.330	568.192	-2948.393	556.156	594.903	-3156.847	685.789	217.009	0.000	0.000	0.000	0.000	0.000	0.000	-3042.989	676.715	52.132	-2962.658	696.332	1118.504
-2741.462	814.244	1073.776	-2755.323	547.534	1064.497	-2896.673	672.716	569.776	-2939.263	555.754	598.123	-3149.913	683.971	220.683	0.000	0.000	0.000	-3320.128	667.448	174.500	-3041.866	676.485	51.516	-2951.017	695.686	1120.984
-2729.851	813.886	1076.259	-2743.049	548.211	1066.434	-2885.442	671.064	571.927	-2929.649	554.380	601.346	-3144.508	682.975	224.962	0.000	0.000	0.000	-3313.324	664.637	183.226	-3040.186	676.267	50.403	-2939.457	695.006	1123.466
-2718.705	813.743	1078.416	-2730.980	548.759	1068.274	-2869.870	669.685	574.225	-2919.076	553.721	603.541	-3138.046	681.351	229.088	0.000	0.000	0.000	-3306.838	661.760	192.590	-3038.941	676.501	49.531	-2927.833	694.296	1125.790
-2707.534	813.745	1080.489	-2719.037	549.317	1069.903	-2869.011	671.260	574.387	-2908.348	552.515	605.418	-3131.227	679.478	233.054	0.000	0.000	0.000	-3299.731	658.092	202.178	-3037.012	676.438	48.619	-2916.222	693.541	1128.061
-2695.350	813.015	1082.725	-2707.166	549.936	1071.330	-2857.881	670.294	575.621	-2897.188	551.513	606.797	-3124.307	677.924	237.179	0.000	0.000	0.000	-3292.740	654.353	212.169	-3034.835	676.037	48.096	-2904.683	692.808	1130.296
-2684.432	813.284	1084.316	-2695.407	550.571	1072.691	-2845.541	670.459	576.167	-2885.786	549.986	608.207	-3117.475	676.305	241.455	0.000	0.000	0.000	-3286.604	651.259	222.743	-3032.239	675.166	47.215	-2891.526	693.213	1131.707
-2672.807	813.170	1085.766	-2683.810	551.079	1074.095	-2828.805	667.935	577.276	-2873.894	548.734	609.029	-3111.071	675.085	246.097	0.000	0.000	0.000	-3282.063	649.530	234.078	-3030.880	672.863	46.331	-2881.554	691.211	1134.280
-2661.987	813.471	1087.363	-2672.037	551.627	1075.402	-2817.012	666.898	577.764	-2861.455	547.443	609.846	-3103.614	673.594	250.316	0.000	0.000	0.000	-3279.854	649.884	246.352	-3022.083	668.758	46.257	-2868.426	691.611	1135.391
-2651.936	814.040	1088.661	-2660.667	551.982	1076.822	-2804.696	665.858	577.929	-2848.823	546.016	610.221	-3096.551	672.180	255.054	0.000	0.000	0.000	-3270.509	646.361	254.378	-3019.153	667.077	45.032	-2856.960	690.834	1137.028
-2641.036	814.136	1089.968	-2649.278	552.491	1077.992	-2791.614	664.688	577.671	-2835.773	544.943	610.005	-3088.851	670.753	259.250	0.000	0.000	0.000	-3257.437	641.462	261.378	-3016.666	665.514	43.170	-2845.539	690.126	1138.417
-2628.599	813.371	1091.161	-2638.177	552.859	1079.133	-2778.694	663.772	577.721	-2822.622	543.456	610.178	-3080.968	669.250	263.302	0.000	0.000	0.000	-3248.398	639.554	270.435	-3008.518	663.179	43.657	-2834.073	689.493	1139.785
-2617.235	813.215	1091.933	-2627.200	552.897	1080.512	-2765.189	662.607	577.227	-2809.001	542.040	609.669	-3073.177	667.811	267.681	0.000	0.000	0.000	-3236.238	635.792	280.579	-3012.743	662.641	42.336	-2822.713	688.915	1140.847
-2606.676	813.361	1092.851	-2616.216	553.083	1081.537	-2751.524	661.607	576.645	-2795.092	540.627	608.998	-3062.844	665.312	270.850	0.000	0.000	0.000	-3226.124	635.196	289.478	-3011.643	661.265	44.186	-2811.314	688.376	1141.897
-2595.165	813.223	1092.884	-2605.348	553.080	1082.512	-2737.426	660.380	575.674	-2780.552	539.709	607.394	-3054.238	663.565	274.918	0.000	0.000	0.000	-3218.365	636.869	297.658	-3009.557	659.577	47.392	-2800.021	687.899	1142.641
-2585.307	813.851	1093.606	-2594.579	552.976	1083.398	-2723.309	659.230	574.690	-2766.171	538.006	606.514	-3045.475	661.798	279.109	0.000	0.000	0.000	-3206.607	634.429	307.331	-3006.364	657.433	50.041	-2788.607	687.525	1143.071
-2573.451	813.410	1093.508	-2583.815	552.985	1083.864	-2708.519	657.837	573.154	-2751.539	536.323	605.522	-3036.139	659.949	283.265	0.000	0.000	0.000	-3196.871	634.116	315.547	-3002.512	655.278	53.648	-2777.216	687.261	1143.321
-2563.879	814.199	1093.793	-2573.078	552.774	1084.149	-2693.369	656.244	571.092	-2736.683	534.703	604.295	-3026.718	658.088	287.583	0.000	0.000	0.000	-3187.255	634.283	323.502	-2997.826	652.704	57.829	-2765.836	687.143	1143.350
-2552.367	813.989	1093.351	-2562.547	552.318	1083.856	-2678.165	654.719	569.094	-2721.521	533.082	602.698	-3017.400	656.331	292.220	0.000	0.000	0.000	-3177.203	634.597	331.145	-2992.440	649.957	62.077	-2754.598	687.206	1143.150
-2538.019	811.299	1092.894	-2552.131	551.845	1083.217	-2662.804	653.088	566.818	-2706.198	531.298	601.091	-3002.188	654.065	297.219	0.000	0.000	0.000	-3166.392	634.762	338.920	-2986.352	647.034	66.230	-2748.048	686.885	1142.279
-2530.598	813.966	1093.000	-2540.792	551.275	1082.412	-2647.046	651.238	564.074	-2690.564	529.493	599.243	-2991.980	652.394	301.469	0.000	0.000	0.000	-3156.033	635.368	345.786	-2979.899	644.015	70.305	-2736.772	687.241	1141.450
-2519.217	813.545	1092.450	-2520.537	554.576	1081.297	-2630.258	648.838	560.745	-2674.862	527.410	597.387	-2981.335	650.744	305.726	0.000	0.000	0.000	-3144.867	635.495	352.783	-2972.123	640.456	75.018	-2725.741	687.281	1140.701
-2508.017	813.480	1090.904	-2510.120	554.068	1080.951	-2614.492	646.802	557.858	-2658.840	525.304	595.073	-2970.284	649.183	309.915	0.000	0.000	0.000	-3133.196	635.685	359.857	-2965.858	637.881	78.865	-2714.533	688.281	1138.843
-2496.719	813.283	1089.905	-2499.712	553.586	1080.128	-2598.415	644.733	554.691	-2642.864	522.925	592.875	-2958.972	647.708	314.086	0.000	0.000	0.000	-3121.967	637.425	365.763	-2958.278	634.793	82.717	-2703.618	688.884	1137.106
-2486.585	813.718	1087.997	-2490.011	552.829	1079.465	-2582.180	642.236	551.237	-2618.015	520.352	591.669	-2947.006	646.255	318.041	0.000	0.000	0.000	-3112.186	638.848	373.921	-2950.535	632.086	86.754	-2692.994	689.184	1135.403
-2475.683	813.471	1086.579	-2479.686	552.327	1077.954	-2565.661	639.608	547.773	-2597.410	513.639	591.301	-2934.666	644.794	321.933	0.000	0.000	0.000	-3098.548	638.021	380.316	-2941.682	629.061	90.798	-2682.341	689.834	1133.157
-2464.510	812.987	1084.453	-2471.384	550.636	1077.399	-2549.343	636.851	544.447	-2581.545	511.150	588.535	-2921.959	643.398	325.602	0.000	0.000	0.000	-3084.394	637.241	386.560	-2932.907	626.314	94.237	-2671.825	690.493	1130.648
-2454.554	813.208	1081.900	-2461.956	549.806	1075.784	-2532.830	633.882	540.657	-2565.273	507.802	585.952	-2908.680	641.974	328.937	0.000	0.000	0.000	-3070.046	636.340	392.485	-2923.656	623.778	98.048	-2661.411	691.262	1127.987
-2443.975	813.122	1079.270	-2451.766	549.341	1073.693	-2515.225	630.285	536.732	-2548.876	504.121	583.596	-2895.376	640.477	332.642	0.000	0.000	0.000	-3055.362	635.336	397.994	-2914.265	621.543	101.273	-2651.071	692.069	1125.021
-2432.204	812.152	1076.268	-2442.661	548.289	1071.829	-2498.927	627.307	533.142	-2532.773	501.083	580.967	-2881.483	639.095	335.725	0.000	0.000	0.000	-3040.390	634.289	403.122	-2904.679	619.499	104.594	-2640.815	692.778	1121.868
-2419.880	810.403	1072.866	-2432.415	547.930	1069.056	-2482.202	623.978	529.569	-2516.860	498.217	578.156	-2867.040	637.684	338.500	0.000	0.000	0.000	-3025.109	633.273	407.696	-2892.210	616.611	108.255	-2630.631	693.498	1118.496
-2408.842	809.903	1069.588	-2423.123	546.951	1066.561	-2465.026	620.476	526.149	-2499.890	493.574	576.096	-2851.303	635.939	340.306	0.000	0.000	0.000	-3009.697	632.143	411.894	-2879.462	614.037	111.078	-2620.486	694.157	1114.965
-2400.485	811.539	1066.159	-2414.685	545.603	1064.164	-2447.923	616.994	522.874	-2483.509	490.139	573.551	-2837.227	635.096	343.548	0.000	0.000	0.000	-2994.257	631.285	415.536	-2866.901	611.950	113.394	-2610.418	694.782	1111.196
-2389.354	810.747	1062.278	-2405.337	544.693	1060.823	-2430.627	613.549	519.769	-2472.701	494.207	567.301	-2822.149	633.741	345.881	0.000	0.000	0.000	-2978.323	630.259	418.680	-2852.591	609.344	116.296	-2600.534	695.295	1107.201
-2377.966	809.886	1057.413	-2395.421	544.068	1057.259	-2413.238	610.191	516.824	-2456.373	491.023	564.778	-2806.890	632.410	348.161	0.000	0.000	0.000	-2962.423	629.255	421.319	-2837.573	606.782	118.898	-2590.814	695.783	1103.134
-2368.069	809.594	1053.387	-2386.193	543.219	1053.711	-2395.756	607.021	514.003	-2439.779	487.949	561.982	-2790.913	630.785	349.832	0.000	0.000	0.000	-2946.383	628.419	423.640	-2822.052	604.292	120.776	-2581.339	696.138	1099.022
-2357.529	808.818	1048.261	-2376.217	542.714	1049.711	-2378.235	604.062	511.397	-2423.160	485.134	559.323	-2774.940	629.422	351.417	0.000	0.000	0.000	-2930.010	627.452	425.191	-2806.317	601.862	122.481	-2572.125	696.289	1094.882
-2346.255	806.973	1043.778	-2366.929	541.986	1045.750	-2360.365	601.161	509.192	-2406.440	482.519	556.891	-2757.539	627.459	351.752	0.000	0.000	0.000	-2913.387	626.236	426.417	-2789.793	599.417	123.881	-2563.204	696.435	1090.636
-2337.422	806.794	1038.264	-2357.105	541.448	1041.346	-2342.835	598.849	507.291	-2389.604	480.013	554.441	-2723.047	614.564	338.025	0.000	0.000	0.000	-2897.909	624.967	426.514	-2773.231	597.409	124.622	-2554.600	696.447	1086.353
-2327.050	805.366	1033.012	-2347.019	541.054	1036.803	-2325.639	596.963	506.000	-2372.727	478.002	552.078	-2705.884	612.932	338.835	-2775.400	546.883	373.653	-2880.916	623.672	426.823	-2742.462	591.510	130.166	-2546.250	696.382	1082.027
-2314.986	802.290	1028.004	-2337.096	540.410	1032.346	-2308.821	595.943	505.352	-2355.797	476.136	550.143	-2688.991	611.689	339.824	-2758.003	544.559	374.485	-2863.593	621.994	426.809	-2724.410	589.605	130.373	-2538.015	696.403	1077.458
-2307.007	802.782	1023.247	-2327.273	539.701	1028.124	-2290.696	594.020	505.967	-2338.893	474.106	548.670	-2671.680	610.315	340.410	-2739.801	542.948	374.267	-2846.154	620.105	426.321	-2705.295	587.541	130.393	-2529.935	696.362	1072.674
-2294.712	800.639	1018.894	-2316.646	539.122	1023.555	-2272.929	594.169	506.704	-2324.140	472.446	547.381	-2668.445	617.954	352.503	-2721.703	541.403	373.483	-2829.206	617.367	425.115	-2687.611	586.128	129.218	-2521.755	696.523	1067.740
-2283.735	800.366	1014.918	-2308.309	537.487	1020.530	-2255.873	593.614	507.577	-2309.163	472.693	545.683	-2651.263	616.855	352.918	-2703.274	539.479	372.612	-2811.445	614.960	423.607	-2668.049	584.782	128.331	-2511.934	696.749	1062.820
-2272.701	800.323	1011.622	-2297.936	536.423	1016.383	-2238.110	592.100	509.220	-2292.450	471.311	545.784	-2634.067	615.911	352.985	-2684.762	537.758	371.284	-2793.853	612.524	421.412	-2647.459	583.200	127.417	-2501.820	695.343	1060.735
-2261.798	800.486	1009.387	-2287.581	535.327	1012.620	-2220.945	591.656	510.736	-2275.101	470.780	547.316	-2615.973	614.708	352.164	-2666.070	536.020	369.727	-2776.175	609.894	418.726	-2626.657	581.903	126.232	-2492.457	693.347	1060.997
-2251.152	800.933	1007.291	-2276.874	534.546	1008.503	-2203.788	591.187	512.466	-2258.047	469.772	549.126	-2598.501	613.776	351.653	-2647.542	534.415	367.923	-2758.601	607.250	415.194	-2605.319	580.780	124.559	-2482.955	691.769	1061.341
-2243.896	804.100	1005.709	-2266.937	533.379	1004.777	-2186.764	590.696	514.357	-2241.064	468.985	550.841	-2580.378	612.882	350.346	-2628.737	533.193	365.464	-2741.170	604.765	410.988	-2583.088	579.536	122.718	-2473.046	690.037	1061.358
-2233.914	804.960	1004.972	-2257.241	532.175	1001.564	-2169.936	590.427	516.302	-2223.914	468.167	552.528	-2562.124	612.153	348.779	-2609.841	532.206	362.461	-2724.001	602.472	406.104	-2560.920	578.874	120.356	-2462.893	687.916	1061.429
-2223.134	805.055	1004.658	-2248.100	530.732	999.330	-2152.922	589.997	518.330	-2206.844	467.169	554.321	-2543.542	611.437	346.618	-2590.777	531.081	360.759	-2707.125	600.303	400.739	-2537.896	577.666	118.308	-2452.798	685.592	1061.805
-2213.861	805.761	1005.334	-2239.830	529.583	999.179	-2136.206	589.868	520.852	-2189.737	466.363	556.195	-2525.137	611.036	344.434	-2571.382	530.623	357.229	-2688.123	598.689	395.286	-2514.415	576.594	115.929	-2442.564	683.614	1062.262
-2204.429	806.230	1005.908	-2225.554	527.542	1001.195	-2119.321	589.695	523.588	-2172.521	465.958	557.695	-2506.633	610.593	341.964	-2552.743	529.863	354.207	-2671.025	597.048	389.293	-2490.358	575.228	113.989	-2432.230	682.178	1062.668
-2192.076	807.231	1007.862	-2216.398	527.095	1002.974	-2102.755	589.871	526.286	-2155.592	465.715	559.301	-2487.478	610.294	338.816	-2533.555	529.456	350.745	-2653.316	595.843	382.396	-2466.146	573.828	111.488	-2421.877	681.469	1062.933
-2183.235	808.546	1008.931	-2206.877	526.982	1004.965	-2086.617	589.986	529.628	-2139.055	465.907	561.083	-2468.605	610.140	335.701	-2514.223	529.412	346.399	-2635.464	594.861	375.546	-2441.999	572.641	108.892	-2411.560	681.188	1063.284
-2173.943	809.485	1009.789	-2196.925	526.735	1007.210	-2071.061	590.467	532.743	-2123.613	465.953	562.523	-2449.021	609.897	331.835	-2494.651	529.799	341.695	-2617.134	594.365	368.035	-2417.397	571.327	106.331	-2401.269	681.113	1063.691
-2165.753	810.974	1010.655	-2187.139	526.379	1009.646	-2055.269	590.846	536.194	-2108.221	467.039	565.075	-2430.475	610.052	328.465	-2475.562	529.428	337.832	-2598.771	594.369	360.291	-2398.946	571.009	100.753	-2390.805	681.109	1064.381
-2155.306	811.097	1010.770	-2177.501	526.354	1011.557	-2039.931	591.286	539.991	-2092.877	467.653	567.608	-2411.114	610.175	324.392	-2455.792	530.105	332.761	-2580.149	594.555	352.378	-2373.658	569.328	98.007	-2380.165	681.002	1065.359
-2145.491	811.708	1011.406	-2167.695	525.906	1014.014	-2025.126	591.817	543.868	-2077.962	468.109	570.626	-2391.035	610.226	320.114	-2436.805	530.018	328.555	-2561.394	595.082	344.126	-2348.094	567.609	95.102	-2369.339	680.912	1066.544
-2134.716	811.699	1011.687	-2157.345	525.477	1016.077	-2010.576	592.394	547.784	-2063.385	468.598	573.782	-2371.049	610.501	315.397	-2416.409	531.048	323.361	-2542.189	596.341	335.206	-2322.278	565.707	92.556	-2358.384	680.957	1067.914
-2124.419	811.742	1012.727	-2147.070	525.054	1018.137	-1996.039	592.752	551.945	-2049.070	469.003	577.279	-2351.227	610.962	310.764	-2396.795	531.978	318.318	-2522.766	597.970	326.059	-2296.090	563.773	89.764	-2347.258	681.219	1069.356
-2113.250	811.349	1013.407	-2136.282	524.504	1020.215	-1981.873	593.045	556.230	-2035.235	469.362	580.995	-2331.017	611.448	305.905	-2377.281	532.674	313.189	-2503.228	599.689	316.621	-2269.831	561.569	87.320	-2336.061	681.614	1070.931
-2102.492	810.922	1014.761	-2125.222	523.905	1022.460	-1968.719	593.606	560.242	-2021.487	469.839	584.664	-2310.315	611.819	300.929	-2357.813	533.450	308.148	-2483.338	601.796	306.924	-2242.053	559.429	85.146	-2324.804	682.061	1072.594
-2091.579	810.427	1016.062	-2114.201	523.495	1025.438	-1955.136	593.810	564.541	-2008.049	470.250	588.442	-2289.691	612.314	295.458	-2336.909	535.483	302.011	-2461.245	605.305	295.103	-2216.698	556.915	82.467	-2313.467	682.427	1074.430
-2080.308	809.638	1017.648	-2102.342	522.473	1027.940	-1941.629	593.934	568.855	-1994.791	470.679	592.199	-2268.780	612.793	290.240	-2316.335	537.530	295.486	-2440.468	608.099	284.762	-2188.728	554.342	80.840	-2302.026	682.697	1076.389
-2069.028	808.691	1019.362	-2090.841	522.065	1031.299	-1928.940	594.092	573.079	-1981.890	471.185	595.871	-2247.888	613.322	285.083	-2296.407	538.724	289.543	-2417.740	611.278	273.720	-2162.022	551.922	78.577	-2290.491	682.844	1078.573
-2057.844	807.637	1021.362	-2079.193	521.444	1033.690	-1915.862	594.219	577.312	-1969.287	471.818	599.406	-2227.716	613.752	279.520	-2276.337	539.933	283.509	-2396.313	614.153	263.162	-2135.237	549.300	76.836	-2278.927	682.904	1080.866
-2046.077	806.222	1023.560	-2067.303	520.629	1037.163	-1903.603	594.268	581.362	-1957.078	472.321	603.020	-2206.918	614.315	273.821	-2256.224	541.011	277.359	-2374.531	616.922	252.396	-2108.242	546.727	75.500	-2267.227	682.993	1083.349
-2033.417	804.595	1024.972	-2056.480	520.769	1040.861	-1891.527	594.404	585.092	-1945.231	472.868	606.582	-2186.419	615.488	268.878	-2236.022	541.969	271.013	-2352.559	619.406	241.541	-2080.777	544.078	74.362	-2255.611	682.992	1085.929
-2021.435	802.779	1027.465	-2045.665	520.800	1043.828	-1879.368	594.319	588.905	-1933.630	473.381	609.933	-2166.525	616.506	263.418	-2215.767	542.854	264.772	-2330.437	621.563	230.664	-2053.993	542.248	73.127	-2243.979	682.884	1088.764
-2009.497	800.934	1030.158	-2034.574	520.506	1046.550	-1867.862	594.246	592.550	-1922.448	473.895	613.134	-2145.590	616.658	258.529	-2195.394	543.632	258.433	-2308.193	623.217	219.731	-2027.494	540.830	72.444	-2232.283	682.757	1091.415
-1997.808	799.112	1033.044	-2024.644	520.270	1049.552	-1856.724	594.322	596.124	-1911.670	474.613	616.118	-2124.649	617.925	252.887	-2174.989	544.146	252.130	-2285.955	624.313	208.941	-2000.771	539.903	71.590	-2220.566	682.531	1094.271
-1985.864	797.057	1035.379	-2012.138	520.474	1052.234	-1845.608	594.387	599.345	-1902.038	476.189	618.465	-2104.123	618.610	247.761	-2154.291	544.722	245.645	-2263.699	624.807	198.211	-1974.155	539.476	71.200	-2208.904	682.072	1097.043
-1973.738	794.980	1037.934	-2002.170	520.068	1055.833	-1834.812	594.446	602.516	-1892.290	477.316	620.822	-2083.761	619.096	242.884	-2133.596	544.998	239.166	-2241.463	624.660	187.598	-1947.636	539.572	70.777	-2197.245	681.500	1100.018
-1961.851	792.854	1040.513	-1990.798	519.855	1058.749	-1824.481	594.526	605.448	-1882.683	478.456	622.890	-2063.423	619.518	237.699	-2113.450	544.862	233.203	-2219.876	623.712	177.473	-1921.203	540.110	70.601	-2185.503	680.821	1102.792
-1950.085	790.960	1042.890	-1979.359	519.562	1061.688	-1814.650	594.791	608.141	-1873.446	479.730	624.599	-2043.639	619.423	233.351	-2092.570	544.917	226.763	-2197.656	623.063	166.841	-1894.941	541.155	70.571	-2173.790	680.043	1105.552
-1939.905	788.133	1045.090	-1966.585	519.158	1064.298	-1805.197	595.257	610.571	-1864.359	481.068	625.995	-2023.212	619.885	228.582	-2071.877	544.850	220.383	-2175.251	621.996	156.992	-1868.837	542.468	70.998	-2161.992	679.302	1108.238
-1927.539	786.063	1047.513	-1956.483	518.395	1067.356	-1795.755	595.725	612.808	-1855.706	482.389	627.012	-2003.149	620.280	223.950	-2051.208	544.899	214.010	-2153.021	620.549	147.608	-1842.987	544.174	71.573	-2150.342	678.322	1110.907
-1915.581	783.914	1049.930	-1945.033	517.892	1070.155	-1786.686	596.445	614.639	-1847.311	483.762	627.841	-1983.077	620.583	219.665	-2030.144	544.755	208.097	-2130.196	620.031	137.838	-1817.363	545.966	72.478	-2138.690	677.330	1113.548
-1903.547	781.755	1052.356	-1933.919	517.146	1073.607	-1778.036	597.336	616.024	-1838.917	484.756	628.174	-1963.126	620.816	215.380	-2009.440	544.711	202.183	-2108.001	618.587	129.030	-1792.063	548.049	73.612	-2127.020	676.419	1116.079
-1891.631	779.612	1054.417	-1922.504	516.595	1076.132	-1769.853	598.437	617.317	-1830.903	485.935	628.638	-1943.776	621.231	211.336	-1988.890	544.581	196.813	-2085.599	617.703	120.411	-1767.237	550.144	75.272	-2115.266	675.391	1118.429
-1879.649	777.407	1056.856	-1911.116	515.965	1078.477	-1761.634	599.486	618.301	-1822.797	487.316	628.830	-1924.289	621.302	207.702	-1968.460	544.494	191.571	-2063.367	616.832	112.318	-1742.493	552.322	77.406	-2103.555	674.304	1120.779
-1867.953	775.629	1058.623	-1899.820	515.335	1080.813	-1753.591	600.520	618.912	-1814.513	488.573	628.970	-1905.239	621.574	204.142	-1948.396	544.294	186.628	-2040.999	616.429	104.186	-1718.797	554.444	79.816	-2091.812	673.309	1122.957
-1855.907	773.549	1060.501	-1887.356	514.902	1082.772	-1745.850	601.671	619.320	-1806.326	489.625	628.911	-1886.448	621.706	200.983	-1928.685	544.164	181.892	-2018.796	616.132	96.622	-1695.607	556.694	82.447	-2080.037	672.240	1125.091
-1844.315	771.742	1062.004	-1876.137	514.385	1084.755	-1738.174	602.895	619.439	-1798.234	490.699	628.282	-1866.829	622.049	198.165	-1909.270	544.127	177.483	-1997.068	615.935	89.399	-1673.185	558.930	85.399	-2068.426	671.135	1127.139
-1832.523	770.014	1063.631	-1866.160	513.846	1086.600	-1730.453	604.017	619.277	-1790.211	491.742	627.403	-1849.005	622.191	195.610	-1890.266	543.990	173.264	-1975.910	615.752	82.681	-1651.449	561.228	88.436	-2056.775	670.067	1129.072
-1820.838	768.327	1065.107	-1853.581	513.577	1087.486	-1722.776	605.260	618.976	-1782.130	492.827	626.409	-1831.388	622.356	192.912	-1872.053	543.527	169.662	-1954.217	616.163	76.459	-1630.603	563.458	91.804	-2045.162	668.915	1130.845
-1809.201	766.750	1066.309	-1842.351	513.063	1088.947	-1715.309	606.608	618.295	-1773.955	493.932	625.128	-1814.642	622.511	190.637	-1854.145	543.479	166.161	-1934.727	615.136	71.287	-1610.465	565.652	95.003	-2033.847	668.128	1132.327
-1798.021	765.489	1067.984	-1831.157	512.471	1090.194	-1707.681	607.917	617.334	-1765.786	494.910	623.745	-1798.346	622.610	188.439	-1836.770	543.314	162.883	-1915.139	614.762	65.984	-1591.208	568.127	98.297	-2022.061	666.680	1133.883
-1786.733	764.325	1069.254	-1819.928	511.784	1091.737	-1700.183	609.266	616.044	-1757.396	495.954	622.265	-1782.546	622.672	186.325	-1819.936	543.112	159.944	-1896.346	614.413	60.867	-1573.103	569.719	101.510	-2010.684	665.470	1135.243
-1775.611	763.295	1070.388	-1808.723	511.047	1092.750	-1692.626	610.757	614.612	-1748.992	496.885	620.606	-1767.596	622.645	184.421	-1803.747	542.862	157.151	-1878.341	613.901	56.253	-1555.727	571.586	104.319	-1999.202	664.363	1136.192
-1764.443	762.490	1071.463	-1797.440	510.280	1093.517	-1685.286	612.197	612.661	-1740.479	497.754	618.911	-1753.137	622.538	182.714	-1788.184	542.454	154.773	-1861.127	613.147	52.038	-1539.409	573.297	107.123	-1987.877	663.229	1136.983
-1753.312	761.724	1072.361	-1786.024	509.420	1093.781	-1677.805	613.532	610.873	-1731.725	498.548	617.156	-1739.337	622.325	181.008	-1773.329	541.940	152.529	-1844.856	612.313	48.199	-1523.963	574.897	109.340	-1976.808	662.354	1137.557
-1742.104	760.797	1073.488	-1774.718	508.589	1094.578	-1670.491	615.049	608.708	-1722.743	499.386	615.196	-1726.121	622.210	178.990	-1759.227	541.456	150.478	-1829.536	611.118	44.766	-1509.425	576.245	111.228	-1965.286	660.948	1138.145
-1731.631	760.466	1074.600	-1763.268	507.612	1094.786	-1663.202	616.520	606.261	-1713.797	500.200	613.266	-1713.751	621.986	177.547	-1745.786	540.974	148.595	-1815.149	609.884	41.463	-1495.805	577.443	112.569	-1954.313	660.020	1138.190
-1721.147	759.934	1075.430	-1752.487	506.616	1093.792	-1655.869	617.905	603.754	-1704.357	500.749	611.360	-1701.771	621.873	175.719	-1732.937	540.548	146.809	-1801.779	608.272	38.662	-1482.971	578.494	113.436	-1942.898	658.574	1138.207
-1710.448	759.557	1075.860	-1741.634	505.736	1093.977	-1648.713	619.235	600.992	-1695.091	501.394	609.341	-1690.508	621.737	173.932	-1720.742	540.199	145.058	-1789.148	606.631	35.995	-1470.856	579.492	113.655	-1931.705	657.353	1137.935
-1699.693	759.143	1076.143	-1730.759	504.743	1092.903	-1641.291	620.460	598.408	-1685.605	501.997	607.177	-1679.673	621.718	172.092	-1709.455	539.629	143.510	-1777.383	604.992	33.316	-1459.505	580.316	113.350	-1920.635	655.972	1137.532
-1689.115	758.748	1076.300	-1720.115	503.864	1091.830	-1633.905	621.501	595.587	-1676.026	502.477	605.263	-1669.430	621.747	169.985	-1698.672	539.447	141.979	-1766.479	603.370	30.749	-1448.962	580.991	112.579	-1909.498	654.639	1136.590
-1679.043	758.600	1076.540	-1709.275	502.826	1091.256	-1626.449	622.468	592.914	-1666.287	502.926	603.147	-1659.714	621.779	167.859	-1688.367	539.463	139.693	-1756.240	601.944	28.061	-1438.936	581.596	111.167	-1898.374	653.293	1135.537
-1668.738	758.385	1076.139	-1698.477	501.641	1089.823	-1618.956	623.356	590.313	-1656.394	503.146	600.867	-1650.230	621.832	165.527	-1678.875	539.463	137.873	-1746.753	600.913	25.501	-1429.759	582.066	109.439	-1887.361	651.917	1134.071
-1658.327	758.100	1075.589	-1687.890	500.529	1087.436	-1611.268	624.092	587.516	-1646.410	503.284	598.546	-1641.570	621.902	163.241	-1669.785	539.479	135.682	-1738.010	599.986	23.092	-1421.074	582.600	107.003	-1876.310	650.661	1132.272
-1647.947	757.874	1074.602	-1677.172	499.185	1086.401	-1603.406	624.665	584.876	-1636.355	503.365	595.989	-1633.971	621.705	160.400	-1661.288	539.478	133.352	-1729.963	599.540	20.647	-1412.955	583.052	104.227	-1865.518	649.306	1130.258
-1637.455	757.256	1073.563	-1666.547	497.794	1084.210	-1595.641	625.142	582.086	-1626.211	503.515	593.166	-1626.079	621.686	157.739	-1653.310	539.464	130.826	-1722.766	599.390	18.470	-1405.428	583.516	101.078	-1854.924	647.897	1127.989
-1627.704	757.123	1071.849	-1655.940	496.314	1081.845	-1587.624	625.286	579.197	-1616.391	503.461	590.264	-1618.160	622.132	154.891	-1645.614	539.256	128.271	-1717.728	598.978	19.109	-1398.897	583.973	97.334	-1844.208	646.683	1125.306
-1617.125	756.300	1070.674	-1645.519	494.704	1079.470	-1579.357	625.180	576.528	-1606.612	503.349	587.143	-1610.837	621.958	152.260	-1638.108	539.069	125.288	-1713.487	598.935	21.706	-1393.510	584.637	91.532	-1833.649	645.377	1122.446
-1607.253	756.085	1068.410	-1634.082	492.638	1076.988	-1571.000	624.701	573.797	-1596.955	503.215	583.809	-1605.015	621.638	149.313	-1631.317	538.933	122.526	-1709.938	599.280	24.651	-1388.482	585.002	83.520	-1823.336	644.012	1119.358
-1596.928	755.351	1066.404	-1623.642	490.892	1074.115	-1562.689	623.998	570.842	-1587.422	502.966	580.308	-1599.433	621.671	146.215	-1625.350	538.951	119.473	-1707.821	599.746	27.769	-1382.714	585.647	74.332	-1812.879	642.812	1115.922
-1587.321	755.007	1063.828	-1613.272	489.290	1071.056	-1554.211	623.234	567.884	-1578.254	502.627	576.713	-1595.249	622.497	142.951	-1620.570	539.327	116.966	-1706.290	600.679	27.033	-1377.262	588.445	67.087	-1802.745	641.376	1112.468
-1577.021	754.257	1061.223	-1602.927	487.752	1067.746	-1544.890	622.285	564.816	-1569.501	502.184	572.991	-1593.148	624.136	139.544	-1619.400	540.861	116.108	-1707.015	600.321	22.555	-1378.892	587.605	68.863	-1792.659	640.071	1108.722
-1566.778	753.301	1058.660	-1592.506	486.271	1064.419	-1535.422	621.494	561.547	-1560.904	501.893	568.985	-1593.744	625.709	136.552	-1620.499	542.739	114.885	-1707.762	600.790	20.507	-1382.408	587.154	70.760	-1782.716	638.748	1104.751
-1557.275	753.134	1055.046	-1582.192	484.969	1060.667	-1525.849	620.902	557.960	-1552.550	501.449	564.871	-1596.118	626.938	134.285	-1621.611	543.776	114.024	-1708.122	601.001	19.509	-1382.420	587.561	70.841	-1772.981	637.482	1100.732
-1546.721	752.125	1052.099	-1571.710	483.622	1056.548	-1515.642	619.997	554.101	-1544.092	501.145	560.733	-1598.706	627.797	133.060	-1623.169	544.769	113.083	-1708.556	601.059	18.802	-1382.879	588.799	70.254	-1763.445	636.344	1096.518
-1536.568	751.261	1048.489	-1561.684	482.661	1052.805	-1505.206	618.922	550.064	-1535.446	500.992	556.868	-1600.595	628.322	132.710	-1623.498	545.546	112.476	-1708.798	601.042	18.353	-1383.681	588.680	69.843	-1754.299	635.112	1092.328
-1526.600	750.488	1045.265	-1551.255	481.636	1048.915	-1494.780	617.441	545.875	-1526.384	500.974	553.276	-1600.480	628.822	132.580	-1622.857	546.374	112.172	-1708.823	601.106	18.283	-1382.651	588.650	68.710	-1745.236	634.040	1087.909
-1517.417	750.206	1041.022	-1541.938	481.326	1044.384	-1484.444	616.121	541.400	-1517.017	501.839	550.016	-1598.565	629.327	132.185	-1621.554	547.138	112.172	-1708.737	600.907	18.939	-1381.125	588.779	66.481	-1736.411	632.995	1083.430
-1506.967	748.767	1038.143	-1531.683	480.396	1039.487	-1474.242	614.730	537.295	-1507.510	502.050	547.360	-1595.783	630.163	131.685	-1620.172	547.989	112.247	-1708.448	601.004	19.282	-1380.509	588.750	64.725	-1727.773	632.082	1078.784
-1496.768	747.771	1034.091	-1521.566	479.623	1035.697	-1464.242	613.662	533.708	-1498.607	502.104	545.656	-1593.405	631.252	131.198	-1619.071	548.781	112.455	-1708.372	601.086	19.602	-1379.821	589.092	63.543	-1719.430	631.116	1074.011
-1486.240	746.572	1030.136	-1511.526	478.742	1031.266	-1455.256	613.141	531.007	-1489.943	501.249	544.047	-1593.100	631.844	130.495	-1617.912	549.920	112.762	-1708.368	601.169	19.858	-1379.525	589.148	62.546	-1711.056	630.300	1068.923
-1476.103	745.810	1025.854	-1501.606	477.871	1026.388	-1446.949	613.034	529.573	-1480.894	500.260	543.551	-1592.048	632.356	130.777	-1616.957	550.626	113.155	-1708.334	601.292	20.180	-1379.121	589.247	61.735	-1702.940	629.473	1063.823
-1465.702	744.743	1021.936	-1491.468	476.969	1022.727	-1438.986	613.184	529.348	-1473.552	499.637	541.957	-1591.147	632.736	131.037	-1616.011	551.007	113.581	-1707.981	601.343	21.067	-1378.578	589.278	60.688	-1694.138	628.400	1058.555
-1455.781	744.222	1017.598	-1483.018	476.211	1018.254	-1431.435	613.627	529.406	-1466.236	498.899	540.281	-1590.092	632.929	131.102	-1615.040	551.157	114.026	-1707.853	601.481	21.623	-1378.382	589.312	59.855	-1683.178	627.372	1055.456
-1445.054	743.464	1013.718	-1472.783	474.986	1014.256	-1424.344	613.826	529.633	-1458.931	498.312	538.597	-1588.766	632.973	131.213	-1614.208	551.031	114.427	-1707.705	601.571	22.033	-1378.085	589.432	59.132	-1672.555	628.093	1055.402
-1434.842	743.257	1009.632	-1462.137	473.522	1010.970	-1417.272	613.870	529.820	-1451.406	497.846	536.751	-1587.632	632.836	131.543	-1613.373	550.884	114.664	-1707.632	601.564	22.310	-1377.795	589.475	58.419	-1662.544	628.984	1055.910
-1423.657	742.842	1006.381	-1450.416	471.590	1008.437	-1410.597	613.590	529.517	-1444.326	497.436	534.671	-1586.805	632.713	131.966	-1612.180	550.642	115.264	-1707.610	601.553	22.591	-1377.857	589.437	57.628	-1652.299	629.868	1055.671
-1413.000	742.842	1003.725	-1440.263	470.474	1006.108	-1404.255	613.046	528.372	-1437.945	497.209	532.532	-1585.486	632.718	132.636	-1611.173	550.737	115.699	-1707.517	601.721	23.043	-1377.725	589.402	57.022	-1641.816	630.867	1054.920
-1401.677	742.617	1001.081	-1430.981	469.686	1003.985	-1398.160	612.086	526.783	-1431.476	496.456	530.487	-1584.436	632.743	133.101	-1610.347	550.645	116.264	-1707.443	601.883	23.626	-1377.649	589.437	56.518	-1631.410	631.784	1054.665
-1391.785	743.413	999.504	-1422.239	468.878	1002.592	-1392.145	611.075	524.780	-1425.518	495.733	528.482	-1583.262	632.733	133.679	-1609.456	550.560	116.877	-1707.359	602.044	24.163	-1377.684	589.539	56.170	-1620.708	632.888	1054.587
-1381.502	744.146	998.512	-1413.712	468.047	1002.329	-1385.843	609.497	522.524	-1419.881	494.931	526.570	-1582.106	632.609	134.389	-1608.553	550.323	117.492	-1707.375	602.068	24.695	-1377.698	589.629	55.752	-1609.965	633.648	1054.835
-1371.413	744.421	999.268	-1404.244	467.580	1002.736	-1378.573	607.646	520.314	-1414.710	494.113	524.868	-1580.474	632.366	135.415	-1607.565	550.038	118.112	-1707.349	602.138	25.056	-1377.719	589.707	55.470	-1598.958	634.168	1055.023
-1360.785	744.404	1000.363	-1396.391	466.973	1002.891	-1373.886	606.413	517.554	-1409.805	493.451	523.680	-1579.102	632.100	136.553	-1606.713	549.607	119.041	-1707.275	602.244	25.546	-1377.745	589.777	55.184	-1588.094	634.197	1055.104
-1350.069	744.118	1001.161	-1385.673	466.393	1003.807	-1368.406	604.196	514.783	-1405.390	492.650	522.727	-1577.836	631.961	137.534	-1605.936	549.143	119.951	-1707.126	602.325	26.141	-1377.816	589.847	54.961	-1577.345	633.912	1055.388
-1339.143	744.097	1002.497	-1375.820	465.447	1004.803	-1362.862	602.365	511.666	-1401.286	491.943	522.351	-1576.725	631.818	138.719	-1604.893	548.770	120.949	-1707.050	602.349	26.844	-1377.847	589.980	54.876	-1566.477	633.497	1055.704
-1328.068	744.107	1004.681	-1365.676	464.638	1005.058	-1357.458	600.694	508.994	-1397.423	491.299	522.393	-1575.535	631.521	140.211	-1603.888	548.454	122.061	-1706.989	602.352	27.706	-1377.910	590.066	54.753	-1555.550	632.977	1056.483
-1316.964	743.908	1006.469	-1355.581	463.654	1005.505	-1351.836	598.981	506.610	-1393.831	490.609	522.448	-1574.375	631.251	141.734	-1602.957	548.064	123.600	-1706.916	602.478	28.723	-1377.981	590.174	54.663	-1544.396	632.374	1057.583
-1305.361	743.296	1008.312	-1345.280	462.622	1005.845	-1346.981	597.763	504.349	-1390.057	489.769	522.875	-1573.059	630.930	143.216	-1602.018	547.587	125.541	-1706.721	602.596	30.232	-1378.086	590.225	54.641	-1533.124	631.686	1058.898
-1294.264	742.703	1010.520	-1334.594	461.669	1006.079	-1342.136	596.691	502.872	-1386.267	489.039	523.784	-1571.755	630.517	145.069	-1600.915	547.264	126.954	-1706.587	602.710	32.242	-1378.153	590.250	54.647	-1521.615	630.798	1060.262
-1282.739	741.857	1012.717	-1323.624	460.793	1006.589	-1338.757	596.228	502.391	-1382.571	488.401	524.360	-1570.198	630.057	147.105	-1599.632	546.800	129.144	-1706.272	603.026	34.649	-1377.990	590.275	54.736	-1509.907	629.755	1061.707
-1271.376	741.003	1014.989	-1312.337	459.972	1007.282	-1335.611	596.185	503.219	-1378.644	487.906	525.249	-1568.460	629.560	149.297	-1598.412	546.334	131.858	-1705.754	602.808	37.826	-1378.022	590.353	54.743	-1498.263	628.380	1063.325
-1259.491	739.871	1017.539	-1300.846	459.260	1008.383	-1331.950	596.576	505.254	-1375.857	488.442	528.086	-1567.119	629.043	151.777	-1596.727	545.722	134.548	-1705.387	601.918	41.775	-1378.075	590.501	54.761	-1486.364	626.992	1065.129
-1247.755	738.807	1020.164	-1288.972	458.745	1009.898	-1328.515	597.359	508.043	-1371.225	487.131	530.022	-1565.128	628.296	154.233	-1595.117	545.090	137.639	-1705.010	601.120	46.072	-1378.137	590.576	54.826	-1474.402	625.725	1067.010
-1235.830	737.559	1022.857	-1276.812	458.308	1011.647	-1325.176	598.233	510.815	-1367.321	486.168	532.808	-1563.010	627.548	157.014	-1593.088	544.260	141.086	-1704.206	600.786	50.731	-1378.141	590.597	54.952	-1462.145	624.623	1068.810
-1223.837	736.562	1025.464	-1264.361	458.106	1013.630	-1321.604	599.081	514.023	-1362.343	483.793	536.129	-1560.719	626.575	160.068	-1591.053	543.508	144.719	-1703.390	600.530	55.505	-1378.077	590.593	55.101	-1449.907	623.516	1071.002
-1211.928	735.491	1028.108	-1251.861	458.028	1015.894	-1317.685	600.112	516.839	-1355.304	487.786	538.755	-1558.019	625.635	163.422	-1588.855	542.723	148.739	-1702.677	600.099	60.014	-1378.051	590.538	55.317	-1437.587	622.634	1073.044
-1199.975	734.374	1030.823	-1238.293	458.413	1017.781	-1313.928	600.555	519.818	-1349.097	484.772	542.275	-1555.087	624.463	166.641	-1586.143	541.891	152.603	-1701.855	599.597	64.543	-1377.939	590.541	55.437	-1425.204	621.826	1075.286
-1187.569	733.126	1033.700	-1224.846	458.625	1019.512	-1309.822	600.021	522.830	-1344.948	484.155	545.338	-1551.892	623.360	170.302	-1583.142	540.922	156.918	-1700.878	599.071	69.250	-1377.741	590.514	55.557	-1412.794	621.081	1077.618
-1175.636	731.959	1036.186	-1212.187	458.383	1022.178	-1304.479	599.286	525.994	-1341.847	484.985	548.216	-1548.267	622.045	173.996	-1579.911	540.133	161.260	-1699.601	598.712	74.411	-1377.777	590.817	55.680	-1400.307	620.385	1079.831
-1163.724	730.980	1038.713	-1199.794	457.966	1024.203	-1301.452	600.076	528.682	-1338.787	486.313	551.183	-1544.307	620.739	177.790	-1576.357	538.990	165.751	-1698.074	598.368	80.147	-1377.737	590.898	55.770	-1388.032	619.534	1082.559
-1151.461	729.884	1041.381	-1187.081	457.572	1026.860	-1296.014	599.658	532.026	-1334.756	487.189	554.510	-1540.096	619.281	181.649	-1572.563	537.845	170.415	-1696.255	597.856	86.691	-1377.482	590.839	55.825	-1375.236	619.003	1084.558
-1139.335	728.890	1043.995	-1174.110	457.547	1029.381	-1290.479	599.490	535.542	-1328.745	486.663	558.471	-1534.857	617.554	185.430	-1568.353	536.564	175.144	-1693.874	597.205	94.095	-1377.139	590.677	55.839	-1362.938	618.381	1087.057
-1127.301	727.903	1046.362	-1160.816	457.626	1031.819	-1284.860	599.499	539.123	-1322.182	486.009	563.005	-1529.512	615.791	189.285	-1563.633	535.548	179.571	-1690.985	596.477	102.416	-1376.691	590.461	55.789	-1350.485	617.824	1089.513
-1115.329	727.042	1048.872	-1147.736	457.720	1034.260	-1278.153	599.019	543.341	-1315.283	485.190	567.516	-1523.918	614.017	193.307	-1558.559	533.868	184.048	-1687.639	595.559	111.274	-1376.146	590.283	55.673	-1337.985	617.286	1091.807
-1103.263	726.142	1051.336	-1134.531	457.797	1036.862	-1271.119	598.759	547.482	-1307.742	484.288	571.846	-1518.032	612.161	197.076	-1552.968	532.289	188.138	-1683.717	594.562	120.273	-1375.634	590.005	55.558	-1325.598	616.680	1094.280
-1091.211	725.466	1053.627	-1121.290	458.088	1039.410	-1263.018	598.322	551.889	-1299.917	483.274	575.842	-1511.603	610.120	200.915	-1547.181	530.314	192.626	-1679.518	593.429	129.668	-1374.897	589.600	55.218	-1313.106	616.161	1096.546
-1079.148	724.875	1055.809	-1107.938	458.332	1041.805	-1234.479	591.233	563.142	-1291.591	482.089	579.621	-1505.156	608.026	204.837	-1541.179	528.011	196.813	-1674.872	592.464	139.064	-1373.894	589.207	54.770	-1300.641	615.587	1098.919
-1066.999	724.261	1058.075	-1094.573	458.774	1044.281	-1206.492	585.026	572.564	-1283.026	480.728	582.995	-1498.572	605.938	208.701	-1534.996	525.954	201.445	-1669.695	591.725	148.480	-1372.555	588.958	54.168	-1288.109	614.943	1101.293
-1054.943	723.813	1060.084	-1081.305	459.381	1046.740	0.000	0.000	0.000	-1274.705	478.517	586.827	-1491.852	603.758	212.638	-1528.709	523.882	205.628	-1664.205	590.579	158.114	-1371.241	588.745	53.357	-1275.651	614.301	1103.628
-1042.836	723.329	1062.135	-1068.224	460.729	1048.673	0.000	0.000	0.000	-1265.556	476.780	590.638	-1485.288	601.732	216.691	-1522.638	521.506	210.034	-1659.598	588.014	168.586	-1370.211	587.781	52.708	-1263.116	613.659	1105.843
-1030.871	722.960	1064.000	-1055.122	461.395	1050.633	0.000	0.000	0.000	-1255.230	475.478	593.392	-1478.889	599.700	221.001	-1516.027	518.885	214.687	-1653.623	585.705	178.435	-1368.832	587.504	51.812	-1250.673	612.936	1108.144
-1018.800	722.570	1065.848	-1042.061	462.105	1052.571	0.000	0.000	0.000	-1244.073	474.285	595.564	-1472.289	597.682	225.450	-1509.153	516.654	219.517	-1647.517	582.765	188.305	-1366.958	587.278	50.571	-1238.286	612.307	1110.264
-1006.951	722.393	1067.535	-1029.179	462.838	1054.298	0.000	0.000	0.000	-1232.755	472.836	597.247	-1466.255	595.693	230.068	-1502.275	514.448	224.511	-1641.007	579.386	198.468	-1364.704	587.113	49.421	-1225.924	611.639	1112.383
-995.126	722.341	1069.284	-1016.427	463.617	1055.908	0.000	0.000	0.000	-1220.860	471.248	598.636	-1459.707	593.875	234.820	-1495.614	512.358	229.760	-1634.230	575.849	208.224	-1362.491	587.025	48.455	-1213.591	611.069	1114.332
-983.394	722.415	1070.817	-1003.744	464.328	1057.354	0.000	0.000	0.000	-1208.531	469.666	599.641	-1453.223	592.012	239.811	-1488.510	510.218	234.718	-1627.112	571.663	218.041	-1360.170	585.778	47.617	-1201.385	610.336	1116.129
-971.595	722.429	1072.313	-991.136	465.040	1058.778	-1178.088	600.720	579.598	-1196.183	467.284	600.470	-1446.300	590.247	244.808	-1481.739	508.118	240.233	-1619.905	567.072	227.789	-1358.400	584.110	46.413	-1189.316	609.573	1118.034
-959.936	722.413	1073.723	-978.730	465.695	1060.055	-1159.658	595.965	576.711	-1182.797	465.527	600.310	-1439.440	588.504	250.125	-1474.391	506.126	245.435	-1612.500	562.407	237.425	-1356.015	582.717	45.255	-1177.090	608.927	1119.608
-948.175	722.193	1074.208	-966.406	466.316	1061.324	-1137.732	588.720	571.836	-1168.984	463.824	600.229	-1432.332	586.718	255.244	-1467.209	503.978	251.099	-1605.111	557.747	247.793	-1353.834	581.411	43.737	-1165.039	608.123	1121.110
-936.393	722.198	1075.649	-954.228	466.899	1062.476	-1123.776	586.445	570.943	-1154.951	462.231	599.815	-1424.739	584.808	260.376	-1459.947	501.968	256.952	-1596.516	553.892	257.812	-1351.388	579.898	42.719	-1153.088	607.407	1122.440
-924.889	722.209	1076.403	-942.118	467.408	1063.521	-1109.621	584.432	569.960	-1140.474	460.555	599.024	-1416.823	582.744	265.527	-1452.120	499.860	262.735	-1587.428	550.506	268.149	-1349.621	578.277	43.261	-1141.046	606.745	1123.517
-913.212	722.071	1076.936	-930.219	467.826	1064.324	-1094.853	582.370	568.678	-1125.719	458.760	597.956	-1408.748	580.666	270.702	-1444.059	497.641	268.609	-1578.005	547.717	278.582	-1348.147	576.371	46.593	-1129.071	606.182	1124.376
-901.795	722.150	1077.197	-918.364	468.153	1065.074	-1078.451	579.859	566.602	-1110.515	456.761	596.553	-1400.201	578.012	275.565	-1435.997	495.355	275.010	-1568.378	545.411	289.196	-1345.814	574.400	50.621	-1117.155	605.512	1125.167
-890.365	722.053	1076.894	-906.640	468.385	1065.650	-1062.777	577.871	564.705	-1095.290	454.655	595.098	-1391.460	575.830	281.112	-1427.594	493.182	281.460	-1558.990	543.428	299.335	-1343.459	572.927	54.665	-1105.410	604.874	1126.018
-878.851	722.327	1077.505	-894.992	468.530	1066.060	-1046.912	575.808	562.415	-1079.765	452.559	593.502	-1382.639	573.687	286.696	-1418.821	491.087	288.195	-1549.810	541.587	309.404	-1340.066	570.185	59.136	-1093.412	604.296	1126.359
-867.440	722.424	1077.395	-883.346	468.530	1066.354	-1030.649	573.782	559.871	-1063.956	450.515	591.656	-1372.963	571.442	292.285	-1409.661	488.887	294.691	-1540.056	539.968	319.184	-1335.962	567.191	64.040	-1081.455	603.849	1126.649
-856.337	722.686	1077.038	-871.895	468.439	1066.493	-1013.981	571.585	557.006	-1047.917	448.342	589.760	-1363.062	569.315	298.054	-1400.192	486.722	301.660	-1529.653	538.714	328.678	-1330.970	563.887	69.200	-1069.684	603.332	1126.641
-845.036	722.772	1076.452	-860.476	468.288	1066.514	-997.044	569.356	553.776	-1031.694	446.129	587.593	-1352.353	566.925	303.438	-1390.305	484.499	308.692	-1518.801	537.731	338.420	-1325.609	560.204	74.348	-1057.622	603.060	1126.552
-833.931	723.103	1075.792	-849.288	467.928	1066.173	-979.579	566.896	550.332	-1015.209	443.821	585.577	-1342.221	564.518	309.583	-1379.930	482.375	316.002	-1507.323	537.135	347.604	-1319.980	556.326	79.529	-1045.929	602.693	1126.228
-822.722	723.260	1075.041	-838.226	467.377	1065.310	-962.080	564.516	546.620	-998.549	441.357	583.086	-1330.533	562.063	314.893	-1368.752	480.301	322.962	-1495.364	536.397	356.950	-1313.758	551.935	84.665	-1034.051	602.614	1125.552
-811.575	723.656	1073.722	-827.090	466.956	1064.540	-944.421	561.937	542.876	-981.576	438.743	580.646	-1318.545	559.819	320.300	-1356.738	478.274	329.758	-1482.311	535.552	366.326	-1307.245	547.628	89.704	-1022.377	602.562	1124.715
-800.492	723.776	1072.340	-814.906	467.755	1065.015	-926.691	559.320	539.130	-964.503	436.182	578.148	-1305.712	557.584	325.713	-1344.422	476.330	336.475	-1468.107	535.463	375.553	-1300.021	543.026	94.729	-1010.754	602.575	1123.488
-789.329	723.993	1070.838	-804.060	467.074	1064.264	-908.601	556.426	535.063	-947.144	433.595	575.316	-1292.261	555.210	330.683	-1331.447	474.368	343.591	-1454.152	534.174	385.552	-1292.247	538.506	99.919	-999.226	602.591	1122.016
-778.104	724.110	1069.222	-793.072	466.576	1063.151	-890.227	553.238	531.105	-929.401	430.789	572.512	-1278.427	553.048	335.726	-1317.516	472.512	349.622	-1438.384	533.785	394.205	-1283.967	533.959	104.902	-987.811	602.672	1120.244
-766.970	724.320	1067.240	-782.184	466.073	1061.782	-872.229	550.009	527.190	-911.830	427.710	570.046	-1263.978	551.011	340.585	-1303.225	470.573	356.013	-1422.218	533.061	402.804	-1274.820	529.562	109.906	-976.452	602.877	1118.072
-755.834	724.307	1065.169	-772.449	464.418	1060.574	-853.701	546.435	523.442	-894.294	424.459	567.563	-1248.921	548.717	344.891	-1288.387	468.619	362.282	-1405.633	531.966	410.996	-1264.748	525.088	114.949	-965.296	602.995	1115.705
-744.689	724.330	1062.649	-761.661	463.684	1058.593	-835.124	542.784	519.871	-876.665	420.994	565.172	-1233.567	546.478	349.374	-1272.975	466.763	367.769	-1388.490	531.073	418.762	-1254.025	520.887	119.852	-954.096	603.316	1112.994
-733.567	724.342	1059.916	-751.501	462.654	1056.621	-816.441	538.886	516.604	-858.968	417.390	562.717	-1217.844	544.468	353.857	-1257.164	464.865	373.263	-1370.915	529.983	426.106	-1242.351	517.042	124.669	-942.999	603.606	1110.023
-722.300	724.279	1056.922	-741.202	461.835	1054.880	-797.807	535.059	513.618	-840.985	413.723	560.344	-1201.588	542.373	357.913	-1241.006	462.962	378.584	-1353.007	528.816	432.988	-1229.818	513.302	129.325	-932.190	603.948	1107.286
-710.992	724.119	1053.877	-731.375	460.496	1051.980	-779.298	531.432	511.042	-822.863	410.153	557.971	-1184.983	540.357	361.961	-1224.333	461.168	383.448	-1334.561	527.656	439.174	-1216.170	509.814	133.771	-921.459	604.210	1104.169
-699.513	723.653	1050.777	-721.266	459.351	1049.167	-760.095	527.531	508.384	-804.736	406.410	555.607	-1167.894	538.466	365.683	-1206.892	459.284	387.681	-1315.893	526.334	444.796	-1201.839	506.321	137.989	-910.770	604.496	1100.652
-688.754	723.615	1046.942	-710.874	458.426	1046.069	-740.903	523.650	506.003	-786.228	402.599	553.337	-1150.388	536.494	369.118	-1189.341	457.400	391.683	-1297.036	524.976	450.034	-1186.507	503.069	141.740	-900.198	604.741	1096.902
-677.648	723.201	1043.152	-700.727	457.423	1042.733	-721.765	520.044	503.875	-767.707	398.744	551.243	-1132.524	534.694	372.305	-1171.397	455.494	395.629	-1277.978	523.497	454.483	-1170.463	499.951	145.417	-890.039	604.837	1093.194
-666.540	722.431	1039.032	-690.813	456.540	1038.967	-702.275	516.610	501.864	-748.939	395.087	549.303	-1114.868	533.289	375.255	-1152.899	453.511	398.680	-1258.655	522.037	458.311	-1153.601	496.961	148.581	-880.030	604.919	1089.382
-655.887	721.843	1034.520	-681.319	455.613	1035.043	-683.427	513.432	499.963	-730.122	391.560	547.301	-1092.627	529.489	376.593	-1134.007	451.528	401.569	-1239.394	520.450	461.710	-1136.099	494.426	151.403	-870.368	604.909	1085.542
-645.382	720.768	1029.909	-671.898	454.749	1030.734	-663.758	510.381	498.735	-711.196	388.002	545.395	-1074.158	527.976	379.205	-1114.833	449.563	403.939	-1220.009	518.953	464.494	-1117.726	491.688	153.756	-861.102	604.798	1081.610
-634.890	719.636	1025.309	-660.546	453.639	1027.056	-643.653	507.449	497.981	-692.053	384.925	543.775	-1055.132	526.236	381.440	-1095.114	447.415	405.727	-1200.580	517.286	466.459	-1098.427	489.084	156.102	-852.175	604.637	1077.620
-624.368	718.106	1020.722	-650.425	452.916	1022.899	-623.488	505.089	497.995	-672.994	382.190	542.587	-1036.427	524.901	383.758	-1075.427	445.419	407.544	-1180.822	515.144	468.125	-1078.466	486.635	157.586	-843.390	604.498	1073.514
-614.024	716.566	1016.111	-640.343	452.150	1018.597	-602.406	503.096	498.467	-653.700	379.893	541.633	-1016.838	523.187	385.361	-1055.296	443.293	408.636	-1161.062	513.021	469.067	-1057.527	484.380	158.723	-834.773	604.287	1069.068
-603.971	715.353	1011.556	-630.021	451.362	1014.311	-582.056	501.414	499.869	-634.234	377.683	540.857	-996.815	521.323	386.657	-1034.694	441.221	408.823	-1141.047	510.696	469.260	-1036.139	482.332	159.369	-826.436	603.979	1064.592
-593.207	713.983	1006.924	-619.474	450.395	1010.299	-561.980	499.950	501.486	-614.701	375.834	540.950	-976.945	519.762	387.622	-1014.346	439.165	409.357	-1121.168	508.199	468.615	-1013.899	480.454	159.521	-817.710	603.921	1059.778
-582.192	712.878	1002.598	-606.798	449.412	1007.376	-542.341	498.680	503.625	-594.842	373.902	541.587	-957.363	518.468	388.245	-993.546	437.290	408.739	-1101.331	505.625	467.199	-990.816	478.422	159.313	-807.208	604.112	1055.384
-570.777	712.037	998.940	-596.598	448.188	1003.319	-522.430	497.575	506.144	-574.851	372.326	543.232	-937.271	516.843	388.450	-972.741	435.334	407.959	-1081.610	502.962	465.149	-966.982	476.598	158.737	-796.537	602.671	1054.140
-558.753	711.703	996.041	-585.811	446.888	999.717	-503.008	496.172	508.909	-554.775	370.799	545.889	-915.748	514.902	387.349	-951.884	433.548	406.598	-1062.170	500.310	462.242	-942.927	475.131	157.480	-786.387	600.749	1055.282
-547.289	711.850	993.802	-574.567	445.433	996.567	-483.452	495.387	512.190	-534.758	369.048	548.641	-894.022	512.931	385.758	-930.957	431.920	404.670	-1042.838	497.796	458.379	-917.710	473.358	156.055	-776.152	599.007	1056.271
-536.314	712.423	991.949	-563.477	443.786	993.773	-463.862	494.540	515.537	-514.835	367.570	551.482	-871.677	510.800	383.575	-909.947	430.400	402.586	-1023.688	495.395	453.876	-892.170	471.675	154.192	-765.522	597.461	1056.851
-526.603	713.500	991.085	-552.921	441.812	991.926	-444.583	494.093	519.136	-495.093	366.053	554.307	-849.439	509.050	380.962	-888.853	429.018	399.965	-1004.671	493.168	448.824	-866.097	470.007	152.048	-754.689	596.017	1057.303
-517.053	714.213	991.101	-543.497	439.426	991.923	-425.218	493.602	522.937	-475.543	364.925	557.620	-829.722	508.811	379.314	-867.729	427.720	397.076	-985.418	491.073	443.045	-839.570	468.540	149.843	-743.693	594.437	1058.048
-506.962	714.191	991.648	-533.852	437.312	993.359	-406.007	493.314	526.922	-456.129	364.130	560.785	-808.802	508.220	376.849	-846.342	426.643	393.789	-966.022	489.113	436.870	-812.482	466.871	147.523	-732.571	593.033	1058.900
-497.237	714.603	992.559	-524.375	436.110	994.815	-386.918	493.277	531.335	-438.382	365.470	563.827	-787.542	507.248	374.054	-825.167	425.622	390.313	-946.369	487.416	430.128	-785.271	465.357	145.062	-721.541	592.213	1059.526
-486.971	714.746	993.835	-514.102	435.395	996.957	-368.285	493.336	536.102	-419.938	365.549	567.116	-766.542	506.876	371.062	-803.552	424.807	386.154	-926.554	485.918	422.895	-757.680	463.743	142.344	-710.538	592.124	1059.984
-476.467	715.364	994.877	-503.512	434.876	999.263	-350.073	493.591	541.086	-401.977	365.794	570.878	-744.928	506.282	367.476	-781.997	424.252	381.789	-906.341	484.543	415.081	-729.911	462.223	139.323	-699.476	592.443	1060.522
-465.883	715.990	995.656	-492.945	434.371	1001.377	-332.097	493.811	546.224	-384.190	366.222	574.632	-723.464	506.020	363.619	-760.303	423.644	377.363	-885.922	483.584	406.871	-701.929	460.729	136.157	-688.246	592.928	1061.216
-455.475	717.013	996.700	-482.363	433.979	1003.959	-314.561	494.273	551.384	-366.038	365.699	578.767	-702.046	505.841	359.573	-738.773	423.411	372.451	-865.397	482.846	398.074	-673.700	459.106	132.878	-676.865	593.062	1062.228
-444.733	717.868	997.310	-471.478	433.592	1006.417	-297.571	494.990	557.005	-349.861	367.047	582.993	-680.248	505.677	354.829	-717.028	423.221	367.239	-844.531	482.392	388.930	-644.991	457.353	129.575	-665.263	593.089	1063.677
-433.677	718.594	998.056	-460.352	433.291	1008.622	-280.807	495.565	562.391	-333.303	367.528	587.282	-658.186	505.304	349.817	-695.397	423.199	361.788	-823.583	482.141	379.088	-615.949	455.514	126.331	-653.450	593.238	1065.405
-422.843	719.300	998.940	-449.035	432.998	1011.018	-264.307	495.947	568.234	-317.019	367.631	592.012	-636.306	505.590	344.850	-673.766	423.353	356.239	-802.723	482.095	368.844	-586.700	453.580	123.168	-641.423	593.385	1067.314
-411.862	720.410	999.041	-437.328	432.860	1013.312	-248.462	496.624	573.947	-301.243	368.072	596.715	-613.269	505.326	339.432	-651.838	423.609	350.160	-781.172	482.879	357.791	-557.087	451.356	119.932	-629.288	593.586	1069.281
-399.931	720.746	1000.516	-425.401	432.764	1015.893	-232.694	497.139	579.637	-285.830	368.655	601.459	-591.303	505.564	333.722	-630.004	424.106	344.017	-759.384	484.383	346.790	-527.341	449.181	116.947	-616.999	593.941	1071.092
-388.071	720.689	1002.109	-412.925	432.538	1018.784	-217.609	497.801	585.226	-270.732	369.270	606.058	-567.524	505.910	327.634	-608.076	424.585	337.689	-737.191	485.668	335.216	-497.266	446.699	114.129	-604.978	593.983	1073.289
-375.832	720.399	1003.833	-400.199	432.440	1021.873	-202.812	498.372	590.669	-255.897	369.994	610.633	-544.864	506.113	321.756	-586.090	425.280	331.165	-714.964	487.270	323.528	-467.271	444.229	111.298	-592.434	594.131	1075.371
-363.507	720.039	1005.678	-387.346	432.306	1025.237	-188.378	498.742	596.123	-241.334	370.672	615.138	-522.265	506.293	315.781	-563.784	426.008	324.247	-692.230	488.922	311.880	-437.212	441.588	108.726	-579.720	594.245	1077.345
-350.983	718.905	1007.894	-374.051	432.032	1028.934	-174.439	499.217	601.247	-227.115	371.473	619.444	-499.146	506.244	309.856	-541.468	426.727	317.330	-668.467	491.055	299.263	-405.731	438.204	107.034	-566.903	594.251	1079.721
-338.342	717.741	1010.031	-360.473	431.764	1032.419	-160.505	499.487	606.342	-213.191	372.191	623.616	-475.988	506.508	303.473	-518.980	427.490	310.237	-644.916	492.859	287.032	-375.803	435.876	104.827	-554.139	594.179	1082.149
-325.514	716.347	1012.506	-347.211	431.564	1035.886	-147.250	499.758	610.912	-199.790	372.972	627.621	-452.597	506.847	297.107	-496.303	428.155	302.848	-620.866	494.529	274.841	-346.010	433.701	102.700	-541.193	594.201	1084.475
-312.577	714.681	1015.262	-334.153	431.435	1039.267	-134.318	499.913	615.311	-186.583	373.716	631.356	-429.361	507.327	290.514	-473.496	428.832	295.370	-596.645	496.061	262.555	-316.062	431.583	100.909	-528.214	594.113	1086.935
-299.620	712.783	1017.799	-321.041	431.234	1042.645	-121.577	499.966	619.305	-173.922	374.565	634.938	-406.090	507.359	284.060	-450.547	429.462	287.957	-572.205	496.973	250.183	-286.219	429.649	99.404	-515.051	594.086	1089.366
-286.666	710.794	1020.403	-308.137	431.254	1045.771	-109.249	499.872	623.076	-161.654	375.477	638.214	-382.435	507.627	277.668	-427.619	430.120	280.705	-547.327	497.896	237.528	-256.293	427.959	98.172	-502.296	593.705	1092.202
-273.409	708.629	1022.912	-295.191	431.125	1048.890	-97.260	499.875	626.372	-149.750	376.418	641.181	-358.932	507.961	271.336	-404.634	430.636	273.289	-521.095	499.374	224.518	-226.531	426.489	97.114	-489.259	593.374	1094.859
-260.124	706.394	1025.465	-282.457	431.124	1051.864	-85.573	499.839	629.531	-138.324	377.491	643.727	-335.529	508.156	265.058	-381.631	431.142	266.063	-495.667	499.938	212.102	-196.927	425.316	96.417	-476.583	592.801	1097.657
-246.839	704.001	1027.883	-269.600	430.910	1054.949	-74.158	499.895	632.220	-127.226	378.597	645.889	-310.115	507.942	260.133	-358.407	431.514	258.493	-470.191	500.186	199.971	-167.332	424.521	95.847	-463.587	592.380	1100.177
-233.349	701.466	1030.349	-256.718	430.472	1058.036	-63.001	499.927	634.796	-116.340	379.755	647.618	-287.665	508.493	253.570	-334.933	431.733	250.764	-444.413	500.233	187.927	-137.803	424.069	95.583	-452.438	590.656	1103.300
-219.782	698.771	1032.748	-244.133	430.156	1060.993	-52.226	500.100	636.782	-105.995	381.130	649.060	-265.048	508.837	246.960	-311.430	431.894	243.231	-418.317	500.286	176.046	-108.632	424.000	95.343	-438.025	590.851	1105.387
-206.521	696.117	1034.817	-231.521	429.613	1063.834	-41.825	500.374	638.478	-95.903	382.577	650.036	-241.977	508.917	240.994	-287.912	431.939	235.613	-392.444	499.873	164.312	-79.583	424.218	95.477	-426.854	588.820	1108.377
-193.203	693.428	1036.980	-218.854	428.971	1066.503	-31.658	500.813	639.910	-86.177	384.111	650.540	-218.856	509.014	235.427	-264.354	431.795	228.346	-366.357	499.261	153.078	-50.332	424.592	96.300	-414.191	587.830	1110.870
-180.143	690.746	1039.033	-206.421	428.356	1069.163	-21.912	501.319	640.847	-76.849	385.634	650.520	-196.202	509.238	229.774	-240.785	431.540	221.033	-340.242	498.545	142.044	-21.878	425.612	97.166	-401.783	586.575	1113.389
-167.085	688.003	1041.053	-193.876	427.564	1071.602	-12.781	502.251	640.898	-67.902	387.212	650.117	-173.620	509.518	224.330	-217.132	431.697	213.885	-314.218	497.696	131.243	6.236	427.000	98.556	-388.877	585.522	1115.641
-154.205	685.422	1042.790	-180.896	426.443	1073.827	-3.836	503.307	640.818	-59.024	388.781	649.320	-151.030	509.784	219.350	-193.754	431.484	206.847	-288.471	496.236	121.041	33.931	428.783	100.326	-376.256	584.173	1118.059
-141.358	683.064	1044.652	-168.321	425.390	1075.956	4.790	504.327	640.266	-50.418	390.106	648.199	-129.139	510.375	214.049	-170.506	431.368	200.502	-262.380	495.469	110.871	61.289	430.744	102.717	-363.454	582.915	1120.201
-128.694	680.823	1046.211	-155.931	424.559	1077.909	12.942	505.511	639.308	-41.879	391.280	646.620	-107.095	510.802	209.445	-147.541	431.329	194.341	-236.070	494.822	101.226	88.092	432.873	105.786	-350.730	581.549	1122.351
-115.952	678.763	1047.811	-143.557	423.735	1079.659	20.956	506.726	637.972	-33.457	392.326	644.525	-85.545	511.136	205.253	-124.759	431.315	188.708	-210.050	494.233	92.050	114.261	435.137	109.155	-338.057	579.983	1124.365
-103.117	676.835	1049.313	-131.191	422.968	1081.158	28.789	507.950	636.372	-25.157	393.265	642.025	-64.349	511.549	201.419	-102.363	431.275	183.438	-184.339	493.691	83.446	139.657	437.560	112.923	-325.217	578.547	1126.158
-90.423	675.141	1050.541	-118.779	422.220	1082.610	36.407	509.085	634.420	-16.951	394.245	639.373	-43.649	511.952	197.623	-80.368	431.502	178.171	-158.938	493.379	75.347	164.258	439.978	116.950	-312.471	576.988	1127.807
-77.690	673.521	1051.868	-106.317	421.377	1083.976	44.127	510.290	632.298	-8.811	395.259	636.403	-23.376	512.390	194.334	-58.855	431.501	173.738	-134.094	493.199	67.817	187.943	442.706	120.912	-299.811	575.475	1129.188
-64.978	672.131	1053.013	-94.036	420.491	1085.167	51.653	511.494	629.828	-0.737	396.256	633.429	-3.678	512.697	191.525	-38.265	431.707	169.503	-109.766	493.243	61.030	210.508	444.869	124.937	-287.276	573.871	1130.642
-52.378	670.881	1054.118	-81.800	419.503	1086.293	59.386	512.663	627.135	7.315	397.272	630.216	15.544	513.192	188.904	-18.176	431.827	165.584	-85.690	494.126	54.534	232.256	447.305	128.656	-274.582	572.492	1131.421
-39.946	669.764	1055.111	-69.660	418.489	1087.295	66.790	513.967	624.000	15.442	398.210	626.963	33.584	513.342	186.483	1.252	431.675	162.256	-63.687	493.908	49.376	252.746	449.506	132.096	-262.186	570.896	1132.366
-27.600	668.762	1056.068	-57.460	417.464	1088.106	74.436	515.380	620.755	23.646	399.135	623.750	51.020	513.464	184.525	19.820	431.651	159.242	-42.375	494.025	44.657	272.115	451.764	135.094	-249.511	569.398	1132.841
-15.294	667.874	1057.059	-45.135	416.502	1088.434	81.973	516.645	617.262	32.109	399.879	620.526	67.545	513.497	182.479	37.709	431.354	156.527	-22.227	494.071	40.577	290.453	453.865	137.735	-236.611	567.859	1133.016
-3.103	667.108	1057.906	-32.835	415.508	1088.650	89.339	517.917	613.351	40.632	400.489	617.217	83.197	513.577	180.480	54.486	431.091	154.309	-3.491	493.822	37.108	307.555	455.857	140.008	-223.952	566.319	1132.975
8.993	666.472	1058.674	-20.555	414.411	1088.728	96.831	519.264	609.432	49.202	401.024	614.072	98.208	513.583	178.704	70.608	430.844	152.023	13.940	493.208	34.108	323.623	457.652	141.968	-211.561	564.497	1133.083
20.975	665.866	1059.510	-8.411	413.361	1088.341	104.166	520.411	605.135	57.982	401.385	611.088	112.272	513.704	176.996	85.790	430.617	150.141	30.246	492.256	31.408	338.685	459.249	143.370	-198.934	562.885	1132.576
32.914	665.493	1060.169	3.691	412.231	1087.692	111.478	521.609	600.839	67.047	401.724	608.154	125.578	513.989	175.083	99.906	430.693	148.301	45.510	491.278	28.655	352.760	460.807	144.246	-186.384	561.177	1132.117
44.753	665.206	1060.652	15.750	411.074	1086.850	117.655	522.602	596.148	76.336	402.082	605.279	138.011	514.413	173.172	113.251	430.874	146.417	59.677	490.099	25.797	365.832	462.136	144.594	-173.844	559.555	1131.310
56.469	664.976	1060.926	27.761	409.830	1085.622	125.289	523.574	592.041	86.074	402.377	602.704	149.675	514.949	170.941	125.521	431.161	144.502	72.711	489.054	22.841	377.994	463.404	144.393	-161.676	557.602	1130.349
68.204	664.694	1060.951	39.708	408.611	1084.095	133.149	524.623	588.152	96.074	402.555	600.102	160.715	515.583	168.656	136.938	431.679	142.282	84.722	488.225	19.997	389.194	464.441	143.466	-149.120	555.985	1128.922
79.864	664.467	1060.865	51.752	407.302	1082.302	141.381	525.577	584.773	106.413	402.680	597.497	171.051	516.125	166.144	147.532	432.202	140.048	95.891	487.440	17.095	399.634	465.295	141.693	-137.083	554.082	1127.217
91.416	664.145	1060.246	63.794	405.946	1080.407	149.510	526.552	581.177	117.281	402.708	594.847	180.675	516.693	163.419	157.562	432.681	137.317	105.545	487.456	14.535	409.269	466.110	139.151	-125.140	552.271	1125.258
103.033	663.860	1059.432	75.742	404.742	1078.201	158.028	527.500	578.287	128.313	402.730	592.198	189.952	517.334	160.760	166.662	433.108	134.622	111.646	487.647	14.359	418.026	466.971	135.725	-112.451	550.464	1123.480
114.389	663.574	1058.174	87.704	403.468	1075.795	166.604	528.270	575.489	139.383	402.780	589.333	198.456	517.637	157.953	175.430	433.184	131.443	117.831	488.279	15.381	425.495	468.342	130.693	-100.503	548.839	1120.687
125.764	663.220	1056.731	99.606	402.048	1073.089	175.318	528.831	572.944	150.859	402.745	586.336	205.685	517.818	154.824	182.978	433.337	128.229	123.134	489.114	16.594	433.568	469.822	123.160	-88.988	547.092	1117.944
137.120	662.858	1054.929	111.432	400.659	1070.145	184.309	529.307	570.857	162.341	402.852	583.148	212.221	517.889	151.432	189.999	433.277	125.066	125.377	488.190	17.825	440.064	471.903	116.795	-77.668	545.487	1115.046
148.379	662.447	1052.963	123.204	399.245	1066.926	193.489	529.319	569.068	174.033	402.938	580.038	218.078	517.845	147.752	196.490	433.012	121.455	127.906	487.261	18.854	445.024	475.006	109.254	-66.343	543.922	1111.950
159.527	662.045	1050.743	134.968	397.817	1063.477	203.400	528.933	567.654	185.917	403.100	576.857	223.173	517.429	143.805	202.366	432.418	117.740	129.593	486.690	20.202	448.583	478.276	100.713	-55.327	542.376	1108.872
170.633	661.536	1048.212	146.667	396.195	1060.189	213.815	527.997	566.265	197.883	403.131	573.636	227.553	517.238	139.712	207.168	432.038	114.304	130.390	486.361	21.284	451.483	482.162	90.412	-43.831	540.796	1105.335
181.686	661.049	1045.405	158.385	394.882	1056.490	224.637	526.673	564.429	209.539	402.961	570.112	231.087	517.692	135.726	210.649	432.152	112.098	130.910	486.092	21.472	455.706	485.422	78.310	-33.116	539.162	1101.887
192.739	660.531	1042.687	170.259	393.373	1052.719	236.130	525.384	562.127	220.684	402.935	566.364	233.116	518.970	132.009	212.418	433.230	110.906	130.942	485.881	21.151	462.263	485.857	68.920	-21.786	537.673	1097.685
203.501	660.036	1039.282	181.839	392.402	1048.581	248.069	524.149	559.221	231.507	402.689	562.278	233.457	521.140	128.858	212.585	434.025	110.887	130.837	486.052	20.783	460.885	483.980	68.822	-10.614	536.231	1093.400
214.395	659.569	1035.898	193.430	391.451	1044.397	260.557	523.175	555.943	241.897	402.497	558.044	233.164	523.174	126.569	212.108	436.276	110.657	130.733	486.448	20.447	456.793	484.771	74.116	-0.630	534.799	1089.654
225.165	659.015	1032.421	204.870	390.934	1040.044	272.929	522.081	551.900	252.295	402.343	554.384	232.879	524.673	125.331	212.722	438.712	110.079	130.755	487.028	20.203	455.960	484.850	76.917	9.283	533.542	1085.199
235.808	658.362	1028.623	216.341	390.557	1035.621	285.486	520.981	548.094	263.028	401.734	552.639	233.576	525.305	125.316	213.365	439.595	110.352	130.841	487.143	20.405	457.564	485.191	72.920	19.197	532.382	1081.194
246.448	657.540	1024.759	227.400	390.630	1031.042	298.511	520.093	544.620	273.895	400.871	552.594	234.540	525.602	126.373	214.226	439.551	111.335	131.073	487.269	20.909	458.868	484.188	69.245	27.569	531.195	1077.047
256.706	656.434	1020.676	238.424	390.801	1026.663	311.788	519.343	541.458	285.180	399.869	552.958	236.812	525.865	128.024	215.520	440.324	112.146	131.340	487.438	21.464	459.395	484.067	69.729	37.303	530.140	1072.675
267.082	655.290	1016.774	249.514	390.863	1022.548	325.599	518.308	539.415	296.756	399.130	553.243	239.023	525.495	129.448	216.791	440.521	113.028	131.565	487.534	22.050	460.376	484.278	68.556	45.584	528.939	1068.019
277.441	653.905	1012.824	260.505	390.875	1018.736	338.897	516.904	538.503	308.481	398.423	553.310	240.840	525.304	130.839	218.216	440.262	113.754	131.685	487.482	22.600	460.635	483.945	67.365	54.107	527.944	1062.983
286.738	652.317	1008.738	271.587	390.321	1015.721	351.566	515.418	538.897	320.388	397.761	553.005	242.243	524.900	131.915	219.659	439.674	114.513	131.795	487.441	23.176	460.997	484.276	66.991	62.202	527.007	1057.727
296.966	650.871	1004.702	282.830	389.481	1013.572	363.753	514.034	540.356	332.345	397.047	552.355	243.584	524.393	132.658	220.922	439.588	114.737	131.877	487.173	23.883	461.684	483.942	66.080	72.799	526.356	1053.559
307.134	649.581	1000.498	293.665	388.471	1011.766	375.791	512.887	541.583	344.352	396.355	551.545	245.070	523.770	133.143	222.365	438.776	115.007	132.092	486.937	24.601	461.881	484.280	64.722	84.286	526.936	1051.704
317.385	648.473	996.243	303.634	387.008	1010.644	387.542	511.919	542.770	356.379	395.682	550.451	246.636	523.226	133.674	223.797	437.907	115.466	132.296	486.521	25.378	462.492	484.014	63.706	93.789	528.588	1050.318
328.373	647.393	993.078	313.457	384.443	1009.679	400.541	510.873	544.450	368.648	394.735	549.453	248.182	522.756	134.089	225.070	437.332	115.858	132.397	486.338	25.959	462.844	483.817	63.105	104.061	530.153	1050.063
338.353	647.402	988.528	321.922	382.250	1008.761	411.299	509.807	544.677	377.545	395.999	547.264	249.521	522.495	134.417	226.073	436.981	116.330	132.470	486.330	26.519	462.916	483.816	62.680	114.412	531.312	1049.103
360.303	641.240	990.767	330.488	380.068	1008.401	420.552	508.534	544.050	387.368	395.883	545.534	250.709	522.225	134.743	226.759	436.744	116.711	132.550	486.420	27.031	463.081	483.710	62.239	124.420	532.346	1049.328
373.945	639.908	989.431	339.404	378.206	1008.185	428.422	507.129	542.475	396.275	395.528	543.795	251.843	521.852	135.035	227.632	436.229	117.212	132.657	486.371	27.436	463.273	483.596	61.891	135.262	533.358	1048.411
385.412	639.672	988.597	348.650	376.306	1008.340	434.978	505.732	539.787	403.507	395.023	541.930	252.776	521.504	135.387	228.513	435.652	117.598	132.720	486.293	27.913	463.357	483.497	61.485	146.182	534.139	1048.668
396.652	639.623	989.655	358.616	374.405	1008.867	440.584	504.324	536.585	409.039	393.991	539.874	253.896	521.116	135.912	229.319	435.106	118.050	132.784	486.318	28.362	463.454	483.361	61.174	157.116	534.925	1049.557
406.479	640.254	990.688	367.445	372.172	1008.723	445.596	502.978	533.265	413.362	392.061	537.982	254.926	520.733	136.412	229.979	434.689	118.385	132.806	486.363	28.770	463.442	483.370	60.948	168.529	534.759	1050.840
416.330	640.708	991.975	377.086	369.887	1008.860	450.041	501.586	529.840	416.526	390.232	535.935	255.807	520.351	137.149	230.530	434.357	118.862	132.828	486.324	29.220	463.423	483.395	60.750	179.201	534.197	1051.731
427.293	640.410	993.766	386.815	367.798	1008.892	454.329	500.203	526.591	419.171	388.464	533.855	256.881	520.249	137.752	231.268	433.896	119.309	132.872	486.390	29.480	463.453	483.581	60.488	190.109	533.362	1052.499
438.470	639.895	995.426	396.860	365.698	1008.858	458.590	498.714	523.106	421.554	386.907	532.069	257.609	519.872	138.376	232.075	433.239	119.834	132.913	486.380	29.764	463.411	483.600	60.312	201.051	532.077	1053.434
438.172	645.562	992.233	406.965	363.699	1008.730	463.108	497.189	519.689	424.028	385.709	530.316	258.676	519.554	139.191	232.691	432.757	120.581	132.944	486.363	30.023	463.323	483.702	60.106	212.085	530.872	1054.432
446.094	646.894	992.713	417.144	361.897	1008.391	468.900	495.006	516.490	426.637	384.697	528.600	259.437	519.015	139.960	233.299	432.211	121.339	132.985	486.328	30.256	463.255	483.754	59.961	223.354	529.368	1055.613
457.612	646.266	994.724	427.521	360.254	1008.224	472.312	494.129	512.934	429.349	383.745	527.058	260.184	518.377	140.929	233.979	431.571	122.139	133.024	486.203	30.524	463.218	483.752	59.784	235.027	527.574	1056.706
468.972	645.829	996.728	437.971	358.688	1008.092	475.272	493.191	510.136	432.361	382.881	525.520	261.082	517.651	141.979	234.726	430.655	123.341	132.998	486.000	31.082	463.115	483.810	59.575	246.632	525.479	1057.936
480.885	645.000	999.279	448.237	357.121	1007.563	477.387	492.363	508.724	434.289	382.604	525.570	261.792	516.816	143.018	235.169	429.889	124.444	133.014	485.747	32.047	462.901	483.944	59.314	258.208	523.379	1059.417
495.094	642.937	1002.823	458.098	356.281	1007.591	476.722	492.605	508.226	436.624	381.923	525.822	262.713	516.014	144.420	235.990	429.002	125.606	133.179	485.329	33.117	462.935	483.935	59.313	269.868	521.420	1061.189
505.474	642.601	1004.661	468.830	355.111	1007.668	479.007	492.682	509.299	439.212	381.052	526.598	263.460	515.184	145.844	236.636	428.195	127.183	133.223	484.828	34.274	462.847	484.030	59.203	281.588	519.461	1063.976
517.244	641.499	1007.202	480.596	355.095	1008.511	484.968	492.837	510.905	441.207	380.691	529.176	264.542	514.212	147.489	237.579	427.351	128.834	133.255	484.629	35.686	462.773	484.082	59.138	293.689	517.931	1066.520
529.673	639.972	1010.343	492.432	353.131	1009.168	480.533	493.651	512.953	443.579	380.048	530.698	265.445	513.299	149.214	238.451	426.434	130.885	133.482	484.354	37.892	462.744	484.126	59.030	305.632	516.466	1069.368
542.112	638.346	1013.534	504.346	352.354	1010.540	483.049	493.945	515.571	447.126	378.752	531.994	266.801	512.117	151.570	239.520	425.439	133.040	133.822	484.107	39.841	462.742	484.162	58.959	317.920	515.570	1071.875
554.835	636.543	1016.882	516.217	352.076	1012.168	485.436	494.047	517.559	450.334	379.212	534.942	268.193	511.146	153.519	240.902	424.308	135.370	134.350	483.851	41.965	462.753	484.204	58.877	330.254	514.787	1074.577
567.418	634.915	1020.148	528.267	351.709	1014.203	487.495	493.769	519.394	453.452	379.579	538.275	269.663	509.968	156.130	242.114	423.505	137.960	134.665	483.705	44.509	462.752	484.188	58.785	342.717	514.282	1077.158
579.965	633.329	1023.285	540.497	351.451	1016.671	490.089	493.433	521.704	456.318	379.690	541.699	271.408	508.910	158.655	243.595	422.689	140.933	135.052	482.850	48.336	462.728	484.304	58.723	356.002	512.955	1079.954
592.708	631.703	1026.491	552.954	351.265	1019.566	492.481	493.097	523.776	459.042	379.598	545.230	273.729	507.949	161.289	245.649	421.498	144.266	135.693	481.968	52.667	462.710	484.391	58.629	368.677	512.791	1082.658
605.435	630.235	1029.399	565.416	351.413	1022.562	498.480	492.307	526.773	461.733	379.360	548.884	276.145	506.644	164.288	247.649	420.392	147.944	136.415	481.438	57.332	462.686	484.484	58.563	381.423	512.788	1085.359
618.135	628.897	1032.267	578.221	351.785	1025.926	0.000	0.000	0.000	464.503	379.030	552.676	278.872	505.391	167.683	250.064	419.361	151.855	137.146	481.210	62.171	462.593	484.410	58.600	394.297	512.823	1087.985
630.887	627.684	1035.111	591.509	351.953	1029.639	0.000	0.000	0.000	467.459	378.663	556.622	282.286	504.041	171.180	252.868	418.135	155.823	138.157	481.127	67.135	462.615	484.333	58.524	407.033	512.611	1090.818
643.647	626.560	1038.051	604.725	352.541	1033.749	0.000	0.000	0.000	470.713	378.315	560.737	285.558	502.682	175.135	255.472	417.236	160.070	139.324	481.013	72.327	462.765	484.187	58.427	419.893	512.635	1093.657
656.391	625.601	1040.949	618.441	353.061	1037.642	0.000	0.000	0.000	474.375	378.041	565.036	289.535	501.160	178.884	258.533	415.985	164.588	140.744	480.564	77.960	463.080	484.022	58.176	432.617	512.633	1096.417
669.010	624.700	1043.837	632.158	353.629	1041.181	0.000	0.000	0.000	478.553	377.895	569.536	294.246	499.125	183.045	261.845	415.179	168.592	142.168	480.386	84.312	463.618	483.693	57.726	444.711	513.731	1099.125
681.629	623.861	1046.837	645.892	354.279	1044.701	0.000	0.000	0.000	484.489	376.184	574.257	297.655	497.897	186.907	265.269	413.580	173.112	144.578	479.552	90.936	464.630	483.117	56.963	458.344	512.715	1102.350
694.106	623.283	1049.576	659.930	354.635	1047.558	0.000	0.000	0.000	489.270	376.750	578.742	300.975	496.495	191.174	269.222	412.084	177.648	147.033	478.971	98.121	465.383	482.757	56.295	470.372	513.838	1105.128
706.454	622.844	1052.359	673.188	355.757	1050.730	0.000	0.000	0.000	496.084	375.992	582.880	305.321	494.909	195.226	272.695	410.560	182.802	149.591	478.302	105.852	465.922	482.541	55.592	483.088	513.843	1108.178
718.790	622.484	1055.122	686.676	356.640	1053.399	0.000	0.000	0.000	502.126	375.489	587.535	309.356	493.278	199.732	276.117	408.971	187.831	151.805	477.561	113.947	466.095	482.307	54.825	496.027	513.718	1111.374
730.914	622.163	1057.598	700.432	357.272	1055.851	0.000	0.000	0.000	509.460	374.530	591.273	313.403	491.860	204.582	279.753	407.510	192.591	153.904	476.720	122.732	465.910	481.989	53.665	508.784	513.944	1114.101
743.227	621.807	1060.293	713.824	358.256	1057.927	0.000	0.000	0.000	517.631	373.575	594.721	316.987	490.613	209.561	283.246	405.964	198.344	155.511	475.352	132.507	465.271	481.269	52.823	521.597	513.952	1116.930
755.219	621.616	1062.659	726.900	359.623	1059.626	550.001	498.709	567.604	526.748	372.571	597.762	320.370	489.350	214.876	285.511	405.544	204.398	156.884	473.692	142.970	462.461	481.049	51.227	534.142	513.847	1119.706
767.355	621.516	1065.052	740.423	360.772	1061.288	559.114	498.943	570.645	536.707	371.590	600.271	323.540	488.044	220.904	288.318	404.217	211.097	158.127	471.761	153.948	461.147	478.752	50.968	546.834	513.781	1122.388
779.615	621.369	1067.604	753.919	361.963	1063.011	572.409	498.322	573.385	547.474	370.602	602.320	326.350	486.901	227.179	291.065	403.067	217.919	159.263	470.233	165.249	462.032	476.049	51.062	559.355	513.831	1124.944
791.712	621.492	1070.005	767.259	363.006	1064.378	583.812	497.968	576.164	559.032	369.658	603.814	329.128	485.685	233.936	293.408	401.664	225.526	160.347	468.984	177.007	461.816	474.607	49.989	571.944	513.691	1127.442
803.841	621.685	1072.396	780.559	364.166	1065.616	595.986	497.190	577.918	571.201	368.632	604.900	331.737	484.508	241.057	295.743	400.283	233.544	161.534	467.612	189.571	459.383	473.071	48.183	584.631	513.643	1129.670
815.993	621.918	1074.797	793.543	365.267	1066.850	608.593	495.892	579.297	583.880	367.651	605.454	332.574	482.783	248.994	298.026	399.005	242.048	162.998	466.645	202.921	454.263	471.868	49.151	597.294	513.480	1131.881
828.053	622.405	1077.039	806.415	366.124	1067.795	621.612	494.476	579.838	596.996	366.518	605.701	335.098	481.679	256.918	300.288	397.850	250.956	164.894	465.592	217.568	449.627	471.190	52.908	609.922	513.334	1133.931
840.191	623.033	1079.364	819.219	366.874	1068.723	634.823	492.852	579.721	610.263	365.202	605.649	338.009	480.697	265.602	302.845	396.682	260.224	166.682	464.061	232.587	445.976	470.465	57.235	622.516	512.881	1135.970
852.156	623.836	1081.589	831.720	367.652	1069.480	647.029	490.497	580.206	624.277	363.564	605.025	340.796	479.874	274.543	305.408	395.596	270.088	169.006	462.698	247.589	441.839	469.924	62.652	635.181	512.659	1137.333
864.229	624.661	1083.721	844.373	368.114	1070.461	659.943	488.670	579.888	637.953	361.155	604.246	344.056	479.072	284.010	308.137	394.554	280.603	172.218	461.062	263.124	438.233	469.638	68.663	647.824	512.128	1138.931
876.146	625.547	1085.588	856.766	368.702	1071.209	675.029	486.987	578.496	651.659	359.902	603.903	347.752	478.193	293.681	311.418	393.445	290.965	176.444	459.192	279.111	434.795	469.601	74.997	660.545	511.639	1140.351
888.216	626.321	1087.462	869.155	369.061	1071.925	687.526	485.209	577.558	665.349	358.887	603.132	351.445	476.904	303.018	315.155	392.287	301.747	181.020	457.250	295.650	431.220	469.639	81.917	673.061	511.253	1141.435
899.993	627.248	1088.766	881.438	369.273	1072.564	702.042	483.109	575.437	678.620	358.047	602.751	355.937	475.866	312.956	319.073	391.142	312.725	186.030	455.133	312.558	427.941	469.624	89.203	685.816	511.068	1142.160
911.886	628.035	1089.992	893.698	369.410	1073.226	716.133	480.856	573.823	692.246	356.756	602.086	360.910	474.705	323.117	323.876	389.871	324.164	191.700	453.207	329.396	424.975	469.523	97.135	698.185	510.515	1142.723
923.504	628.921	1090.908	905.857	369.602	1073.758	730.376	478.969	571.654	705.830	355.287	601.406	366.538	473.511	333.341	328.960	388.682	335.644	198.017	451.195	346.808	422.587	468.991	105.686	710.733	510.270	1142.719
935.286	629.657	1091.592	917.993	369.540	1074.239	744.862	477.242	569.462	719.418	353.865	600.736	372.697	472.202	343.080	334.577	387.546	347.314	205.119	449.343	363.661	420.826	468.367	114.549	723.285	509.836	1142.718
946.915	630.460	1091.836	930.144	369.354	1074.661	759.772	475.448	566.889	733.012	352.406	600.255	379.145	470.915	353.678	340.887	386.335	359.284	212.953	447.770	380.362	419.750	467.303	123.812	735.850	509.526	1142.341
957.791	631.344	1092.011	942.097	369.217	1074.848	774.598	473.838	564.203	746.651	350.935	599.559	386.308	469.583	364.391	347.889	385.088	371.415	221.411	446.446	396.911	419.466	465.796	133.445	748.391	509.065	1141.773
969.518	631.938	1091.812	954.041	368.936	1075.019	789.606	472.309	561.234	760.307	349.468	598.990	393.975	468.295	374.982	355.613	383.871	383.544	230.611	445.473	413.070	419.802	463.880	143.351	761.035	508.843	1140.798
980.959	632.609	1091.158	965.985	368.583	1075.013	805.101	470.486	557.818	774.035	347.980	598.147	402.185	467.025	385.523	364.032	382.649	395.948	240.424	444.485	429.217	420.872	461.374	153.535	773.545	508.594	1139.578
992.568	633.186	1090.304	977.731	368.264	1074.805	820.628	468.993	554.497	787.901	346.407	597.238	411.173	465.772	396.095	373.040	381.628	408.505	250.760	443.610	445.358	422.835	458.565	163.729	785.816	508.490	1138.027
1004.420	633.539	1089.141	989.600	367.777	1074.517	834.930	467.933	551.352	801.906	344.805	595.948	420.810	464.597	406.630	382.565	380.816	420.537	261.885	443.072	460.748	425.440	455.393	174.070	798.323	508.283	1136.624
1016.306	633.804	1087.662	1001.277	367.434	1073.837	849.370	466.748	548.419	816.197	343.402	594.381	431.131	463.528	417.026	393.047	379.921	432.612	273.783	442.737	475.866	428.734	451.986	184.455	810.235	508.213	1134.356
1028.013	634.067	1085.914	1012.889	367.184	1072.934	863.889	465.396	545.545	830.619	341.700	592.627	442.093	462.368	427.403	404.417	378.877	444.728	286.391	442.426	490.817	432.870	448.362	194.911	822.418	508.512	1131.651
1039.775	634.316	1083.755	1024.519	366.911	1071.913	878.179	464.004	542.744	845.341	339.519	590.739	453.708	461.409	437.331	415.993	378.198	456.235	299.871	442.258	505.459	437.709	444.727	205.303	834.034	508.505	1128.921
1051.565	634.467	1081.366	1036.079	366.795	1070.607	892.876	462.286	540.087	860.305	337.505	588.582	465.881	460.389	447.192	428.667	377.244	467.746	314.205	442.215	519.664	443.346	441.127	215.642	845.757	508.597	1125.959
1062.963	634.751	1078.691	1047.521	366.650	1069.002	907.592	460.288	537.487	875.395	335.333	586.198	478.563	459.225	456.632	442.012	376.330	478.809	329.145	442.074	533.417	449.555	437.562	225.938	856.857	508.558	1122.748
1074.549	634.898	1075.896	1058.979	366.477	1067.350	922.100	458.439	534.656	890.800	333.136	583.842	491.972	458.271	465.928	455.706	375.500	489.611	344.801	441.894	546.725	456.533	434.146	235.985	868.034	508.789	1119.067
1086.327	634.907	1072.853	1070.180	366.565	1065.309	938.268	455.971	531.358	906.059	330.632	581.171	505.935	457.248	474.770	469.931	374.856	499.739	361.112	441.637	559.561	464.230	430.838	246.082	879.027	509.127	1115.149
1097.621	635.169	1069.593	1081.395	366.509	1063.145	953.205	453.819	528.592	921.394	327.701	578.642	520.263	456.309	483.086	484.782	374.114	509.279	377.954	441.312	571.892	472.660	427.811	255.693	889.697	509.008	1111.483
1109.159	635.134	1065.997	1092.488	366.533	1060.760	967.718	451.876	525.445	936.852	324.436	576.175	535.348	455.321	491.291	500.241	373.275	518.561	395.421	440.882	583.493	481.668	425.022	265.072	900.679	509.357	1107.296
1120.759	634.995	1062.420	1103.397	366.531	1058.043	988.231	447.134	521.600	952.508	321.119	573.473	550.902	454.285	499.007	516.391	372.246	527.352	413.288	440.279	594.579	491.519	422.339	274.255	911.341	509.486	1103.245
1132.256	634.923	1058.572	1114.217	366.642	1054.939	1003.210	445.441	517.440	968.348	319.708	570.567	566.237	452.193	505.427	532.974	371.241	535.565	431.656	439.635	604.954	502.125	419.873	282.866	922.033	509.728	1098.568
1143.686	634.774	1054.478	1125.851	365.404	1052.015	1017.812	443.750	513.484	984.509	316.628	567.685	582.891	451.210	512.229	550.057	370.173	543.253	450.465	438.831	614.791	513.335	417.677	291.242	932.890	509.940	1094.283
1155.308	634.434	1050.223	1137.530	363.985	1048.211	1033.008	441.714	509.476	1000.731	313.815	564.377	599.857	450.139	518.497	567.356	369.172	550.254	469.713	438.008	623.873	525.359	415.553	299.048	943.345	510.017	1089.404
1166.698	634.191	1045.500	1150.942	363.817	1047.951	1048.870	439.105	505.915	1017.114	310.651	561.032	617.331	449.114	524.204	585.133	368.206	556.604	489.192	437.125	632.255	537.947	413.677	306.386	953.994	510.401	1084.599
1177.964	633.876	1040.744	1159.884	367.557	1042.875	1065.295	436.290	501.773	1033.538	307.541	557.859	635.224	448.208	529.468	603.355	367.223	562.366	509.170	436.147	639.986	551.119	411.945	313.274	964.452	510.495	1079.699
1189.344	633.256	1036.013	1174.060	368.871	1038.104	1081.680	433.503	498.162	1050.297	304.420	554.175	653.425	447.111	534.146	622.071	366.063	567.786	529.380	435.270	646.901	565.049	410.282	319.387	974.499	510.791	1074.177
1200.413	632.587	1030.842	1184.949	368.110	1033.829	1098.506	430.479	494.334	1067.215	301.211	550.693	672.166	446.254	538.415	640.951	365.062	572.459	549.900	434.395	653.148	579.515	408.749	325.075	984.435	510.926	1068.900
1211.395	631.570	1025.851	1195.878	368.156	1029.397	1115.891	427.593	490.412	1084.410	297.944	546.924	691.132	445.317	542.044	660.009	364.124	576.141	570.684	433.612	658.654	594.638	407.301	330.122	994.099	510.853	1064.237
1222.024	630.384	1020.566	1207.134	368.037	1025.103	1133.411	424.959	486.504	1101.717	294.930	543.330	710.353	444.411	545.016	679.422	362.970	579.448	591.618	432.636	663.180	610.460	405.914	334.382	1003.546	510.878	1058.938
1232.074	629.188	1015.132	1217.820	368.128	1020.350	1151.921	422.577	483.228	1119.465	291.966	540.175	729.914	443.648	547.697	698.952	361.843	581.921	612.701	431.723	667.120	626.915	404.764	338.091	1012.176	510.903	1053.419
1242.559	627.508	1010.088	1228.380	368.214	1015.546	1170.398	420.562	480.200	1137.180	289.363	537.023	749.645	442.694	549.849	718.709	360.316	584.514	633.858	430.812	670.179	644.071	403.754	341.053	1020.767	511.118	1047.970
1252.341	626.162	1005.060	1238.869	368.309	1010.596	1189.103	418.692	477.679	1155.174	287.035	534.179	0.000	0.000	0.000	738.416	359.160	585.721	654.920	429.543	672.309	661.884	402.919	343.104	1029.563	511.403	1042.459
1261.975	625.166	999.877	1248.702	368.634	1006.246	1208.018	417.444	475.438	1173.145	285.105	531.766	0.000	0.000	0.000	757.697	358.375	586.048	675.668	428.252	673.669	680.375	402.315	344.280	1039.154	512.398	1036.845
1272.099	624.229	995.568	1258.042	368.860	1001.897	1226.772	416.187	473.771	1191.469	283.493	529.671	0.000	0.000	0.000	777.657	357.040	586.266	695.721	426.657	674.188	699.421	401.796	344.831	1049.603	512.522	1033.765
1282.097	624.050	991.872	1267.053	368.655	996.948	1246.036	415.261	472.896	1210.096	282.077	528.131	0.000	0.000	0.000	797.342	355.911	585.890	715.043	425.109	673.805	719.189	401.138	344.680	1059.178	511.844	1033.703
1292.209	624.755	989.875	1275.898	367.691	990.799	1265.179	414.417	472.498	1230.719	281.345	527.985	0.000	0.000	0.000	816.507	355.200	584.619	733.624	423.506	672.731	739.330	400.916	343.417	1068.615	510.883	1033.567
1301.475	626.925	988.569	1286.434	367.307	986.049	1283.687	413.063	472.649	1249.520	280.318	527.582	0.000	0.000	0.000	835.828	354.341	582.818	751.772	421.823	670.815	759.984	400.614	341.447	1078.230	509.823	1033.161
1310.216	629.563	987.539	1297.247	366.770	982.160	1303.392	412.622	472.929	1268.734	279.291	527.862	0.000	0.000	0.000	854.903	353.727	580.434	769.567	420.298	668.079	781.032	400.302	338.592	1088.482	508.706	1032.105
1319.083	631.622	987.049	1307.224	366.111	978.821	1322.792	411.989	473.656	1287.901	278.209	528.606	0.000	0.000	0.000	873.953	353.088	577.434	787.282	418.971	664.379	802.507	400.064	335.020	1098.587	507.365	1031.339
1327.873	633.264	986.744	1317.041	364.413	977.521	1342.094	411.604	474.202	1305.659	275.777	529.395	0.000	0.000	0.000	892.901	352.613	574.046	804.683	417.830	659.844	824.340	399.882	330.540	1108.700	505.786	1030.772
1336.940	634.824	987.085	1326.573	362.021	978.952	1361.676	411.287	475.476	1324.557	275.362	530.128	0.000	0.000	0.000	911.399	352.496	569.716	821.825	416.715	654.620	846.645	399.530	325.555	1119.232	504.379	1030.642
1345.818	636.741	987.425	1335.104	360.123	979.109	1381.092	411.131	477.241	1342.355	276.063	530.041	0.000	0.000	0.000	931.660	351.097	565.635	838.525	415.929	648.699	869.314	399.158	319.895	1129.549	503.442	1030.586
1354.726	638.708	987.620	1343.982	358.392	979.928	1400.953	411.093	479.719	1361.497	275.886	531.278	0.000	0.000	0.000	949.966	351.407	560.572	854.941	415.495	641.853	892.207	398.784	313.837	1139.753	502.715	1030.763
1363.818	640.545	987.603	1353.164	357.291	980.781	1420.615	411.007	482.581	1379.835	276.237	531.768	0.000	0.000	0.000	968.235	351.556	554.719	871.300	415.375	634.364	915.633	398.411	307.340	1150.185	502.227	1031.449
1373.369	642.019	987.857	1362.866	356.570	981.351	1439.658	411.218	485.938	1399.114	276.019	533.168	0.000	0.000	0.000	986.451	352.049	548.511	887.464	415.350	625.977	939.223	398.251	300.093	1160.620	501.432	1032.439
1382.986	643.599	988.120	1372.815	356.208	982.025	1466.958	412.299	492.157	1417.665	276.344	534.472	0.000	0.000	0.000	1004.500	352.492	541.929	903.498	415.502	616.935	963.240	398.049	292.411	1171.092	500.609	1033.378
1392.349	645.095	988.114	1382.888	356.239	982.942	1485.900	412.667	496.348	1435.839	276.626	536.249	0.000	0.000	0.000	1022.172	353.422	534.753	919.250	415.874	607.097	987.576	397.881	284.394	1181.615	499.759	1035.047
1402.064	646.140	988.464	1393.249	356.336	984.248	1504.594	413.016	500.952	1454.113	277.020	538.668	0.000	0.000	0.000	1040.066	353.949	527.257	934.968	416.624	596.609	1012.335	397.996	275.466	1192.529	499.202	1037.042
1411.759	647.004	989.229	1403.869	356.218	986.023	1523.149	413.402	506.102	1474.012	277.357	541.836	0.000	0.000	0.000	1056.272	356.195	518.886	950.631	417.607	585.386	1037.181	398.637	266.558	1203.256	498.592	1039.075
