NO_OF_SAMPLES	4800
FREQUENCY	960
TIME_STAMP	2020-02-08, 11:54:14	228332.83923580
FIRST_SAMPLE	1
DESCRIPTION	Force data in local (force plate) coordinates
DATA_INCLUDED	Force
FORCE_PLATE_TYPE	Amti
FORCE_PLATE_MODEL	Unknown
FORCE_PLATE_NAME	Embedded Force Plate
FORCE_PLATE_CORNER_POSX_POSY_X	0.000000
FORCE_PLATE_CORNER_POSX_POSY_Y	1200.000048
FORCE_PLATE_CORNER_POSX_POSY_Z	0.000000
FORCE_PLATE_CORNER_NEGX_POSY_X	600.000024
FORCE_PLATE_CORNER_NEGX_POSY_Y	1200.000048
FORCE_PLATE_CORNER_NEGX_POSY_Z	0.000000
FORCE_PLATE_CORNER_NEGX_NEGY_X	600.000024
FORCE_PLATE_CORNER_NEGX_NEGY_Y	0.000000
FORCE_PLATE_CORNER_NEGX_NEGY_Z	0.000000
FORCE_PLATE_CORNER_POSX_NEGY_X	0.000000
FORCE_PLATE_CORNER_POSX_NEGY_Y	0.000000
FORCE_PLATE_CORNER_POSX_NEGY_Z	0.000000
FORCE_PLATE_OFFSET_X	-0.787400
FORCE_PLATE_OFFSET_Y	-0.812800
FORCE_PLATE_OFFSET_Z	-56.108600
FORCE_PLATE_LENGTH	1200.150000
FORCE_PLATE_WIDTH	600.202000
Force_X	Force_Y	Force_Z	Moment_X	Moment_Y	Moment_Z	COP_X	COP_Y	COP_Z
1.698443	1.123257	4.586877	0.804644	1.015488	0.579994	-242.953377	160.870094	0.000000	
1.826155	1.477453	4.067466	1.150213	1.048256	0.526017	-283.695395	261.590158	0.000000	
-1.398073	0.783265	1.143307	6.315462	1.792015	0.181296	-1499.572581	5484.603239	0.000000	
0.326502	1.022133	1.998170	3.559818	1.299149	0.360785	-660.124908	1752.024829	0.000000	
1.298054	1.646092	4.939327	1.926822	1.139950	0.600494	-246.323205	370.586282	0.000000	
2.636551	1.487441	5.104501	-1.175602	0.614324	0.884581	-150.117892	-247.469737	0.000000	
4.751629	2.081033	8.034926	-4.704061	-0.003501	1.050995	-33.532726	-600.796557	0.000000	
5.511427	1.956832	8.896781	-6.341213	-0.070837	1.284586	-27.583828	-725.907444	0.000000	
6.175537	2.095369	9.932140	-7.632234	-0.408753	1.393565	5.480363	-781.087986	0.000000	
5.776890	2.137587	9.069027	-7.030091	-0.103717	1.320563	-25.091708	-789.213621	0.000000	
6.091436	2.095786	10.106944	-7.977082	-0.410978	1.465234	6.058968	-801.715012	0.000000	
1.298864	1.070843	4.936003	2.097597	1.171170	0.564001	-252.822718	411.973377	0.000000	
-0.072334	1.017211	3.039854	3.818654	1.479904	0.345508	-486.286354	1236.608552	0.000000	
-1.619960	0.471909	0.103709	7.089434	1.886833	0.089501	-17317.825101	68102.513852	0.000000	
2.182355	1.611732	5.278962	0.505219	1.044784	0.672021	-221.897648	77.760811	0.000000	
0.150292	0.796489	3.037706	3.990617	1.541588	0.399312	-511.047446	1298.169655	0.000000	
3.738111	1.763432	6.309408	-2.983304	0.426583	0.958300	-101.640478	-489.328929	0.000000	
4.623898	1.813939	8.382128	-4.532673	0.298742	1.141398	-67.379375	-553.709422	0.000000	
5.377552	1.955474	8.550962	-6.082653	-0.251040	1.229986	-6.715081	-724.985287	0.000000	
5.330393	1.999190	8.377653	-5.781260	-0.037727	1.176392	-31.983985	-704.283364	0.000000	
3.741920	1.453810	7.001095	-3.414465	0.242424	1.012599	-65.402657	-500.168391	0.000000	
1.606126	1.344290	3.895011	1.106409	1.017495	0.489345	-285.154287	263.880480	0.000000	
-0.468798	0.967551	3.389410	4.465032	1.632555	0.364705	-474.690269	1300.518181	0.000000	
4.309707	1.811449	6.997608	-3.585369	0.243390	0.977533	-70.125661	-527.708149	0.000000	
-2.150288	0.552592	0.108571	8.296032	2.102443	0.090688	-18254.188716	76124.594587	0.000000	
4.093973	1.501124	6.652177	-3.543567	0.212871	1.011931	-67.318669	-546.167104	0.000000	
6.222638	2.053585	9.239533	-7.719434	-0.196868	1.427860	-17.268282	-848.762324	0.000000	
6.128931	2.182431	9.066867	-6.770974	-0.071474	1.356997	-30.832198	-761.100489	0.000000	
2.720594	1.401499	4.755549	-1.262589	0.796410	0.776306	-200.356143	-282.846474	0.000000	
1.082780	1.380885	3.901628	2.183473	1.292429	0.633726	-347.612522	538.960251	0.000000	
-2.468049	0.593368	-0.410716	9.200558	2.258081	-0.106703	5159.960414	-22321.013581	0.000000	
1.212993	1.425615	4.419847	1.968665	1.231000	0.616923	-294.702328	426.504288	0.000000	
-1.313625	0.649701	1.487393	6.616949	1.975053	0.128728	-1279.096177	4423.368500	0.000000	
-5.566879	0.075253	-3.336321	14.840482	3.125675	-0.540040	842.454176	-4447.704540	0.000000	
6.356574	2.008754	10.277913	-8.020236	-0.289713	1.501615	-7.300932	-792.115862	0.000000	
7.280954	2.107336	10.616861	-9.441290	-0.475211	1.501613	5.493791	-901.222925	0.000000	
6.658554	2.234815	9.581987	-8.364666	-0.379986	1.356759	-0.121137	-886.856416	0.000000	
5.200612	1.777447	8.551018	-5.911118	-0.099365	1.194099	-23.291609	-703.752364	0.000000	
-0.244438	0.929042	1.829558	4.161940	1.633016	0.378712	-885.864674	2245.528424	0.000000	
-1.272101	0.870421	1.487873	6.789975	2.036495	0.111413	-1321.544822	4529.907722	0.000000	
2.014855	1.216128	5.106513	-0.229097	1.010574	0.759705	-220.825043	-59.038894	0.000000	
-6.014926	0.073428	-4.893691	15.743866	3.312195	-0.757938	607.078244	-3217.147405	0.000000	
-3.126471	0.454182	-1.098075	10.276555	2.442997	-0.089830	2064.258786	-9336.308869	0.000000	
6.796416	2.145109	10.794509	-8.665483	-0.443093	1.520468	4.933605	-814.730531	0.000000	
7.240227	2.324421	11.485939	-9.181197	-0.535993	1.647484	10.509383	-811.509815	0.000000	
6.444069	1.876496	9.583626	-7.676075	-0.347702	1.464280	-2.234196	-812.756247	0.000000	
5.685200	1.913442	8.375057	-6.039743	-0.098594	1.229931	-27.102972	-734.790398	0.000000	
1.609149	1.476171	3.896908	1.236002	1.108427	0.579348	-308.393993	295.107948	0.000000	
4.628530	1.593533	7.689342	-4.404498	0.299673	1.193297	-73.533932	-585.246337	0.000000	
6.085362	2.094875	9.239656	-7.158920	-0.224621	1.338780	-13.430694	-788.337878	0.000000	
-8.133423	-0.522008	-7.305286	19.574110	4.112582	-0.958456	499.703226	-2684.266592	0.000000	
-0.472002	1.056736	2.176838	4.938550	1.636009	0.272856	-740.174621	2240.630304	0.000000	
6.796185	1.968054	10.100725	-8.278467	-0.470887	1.483080	8.079566	-831.336563	0.000000	
6.970058	2.460094	9.408395	-9.010337	-0.533415	1.427756	14.341084	-973.175113	0.000000	
4.932890	2.036147	8.381476	-4.574556	0.117691	1.195456	-47.851772	-560.237089	0.000000	
2.190338	1.216681	5.278199	-0.271754	0.919999	0.760098	-198.372871	-65.232554	0.000000	
-1.359544	0.737250	1.141509	6.918770	1.916198	0.092412	-1612.615850	6024.024158	0.000000	
4.048908	1.809284	7.347003	-3.628498	0.272121	1.049820	-68.746980	-508.504782	0.000000	
2.721771	1.178332	5.274322	-1.047265	0.827072	0.813282	-186.552810	-211.907212	0.000000	
-9.564411	-0.673704	-7.992529	23.063533	4.489496	-1.387405	493.780811	-2891.178842	0.000000	
5.602540	2.002512	8.723913	-6.599621	-0.192820	1.337663	-14.718200	-770.189923	0.000000	
5.371368	1.955700	8.895603	-5.996753	0.112485	1.123792	-47.312072	-687.273812	0.000000	
7.948257	2.291080	11.133828	-10.732688	-0.752442	1.663239	26.739239	-976.329755	0.000000	
5.596927	2.045925	9.415328	-6.642123	-0.162952	1.249785	-16.833964	-718.463553	0.000000	
5.155540	2.042282	8.206473	-5.695165	-0.068028	1.193893	-27.746895	-708.760641	0.000000	
-1.089342	0.653479	1.486512	5.970462	1.972494	0.199903	-1286.598490	3990.946851	0.000000	
5.024011	1.865415	7.167510	-5.265686	0.055513	1.155796	-47.861344	-750.076016	0.000000	
-0.610495	0.833683	1.655484	5.799054	2.003486	0.129121	-1190.308246	3473.867765	0.000000	
-7.824722	-0.561787	-7.308309	18.841725	3.868286	-0.977209	468.439107	-2583.249754	0.000000	
4.444893	1.990028	8.037468	-4.317073	0.390434	1.087285	-80.393368	-551.823523	0.000000	
3.296245	1.758111	6.312819	-2.207969	0.610356	0.941040	-126.769778	-366.198640	0.000000	
8.033192	2.337076	10.959181	-10.862024	-0.722088	1.591200	23.973288	-1003.912741	0.000000	
5.996091	2.050391	8.547172	-6.685922	0.080430	1.301975	-49.559320	-796.510668	0.000000	
5.160282	1.951745	8.554018	-5.436617	0.053322	1.320376	-40.868899	-649.177964	0.000000	
-1.095394	0.784480	2.178420	6.014732	1.821253	0.112049	-808.616906	2740.034744	0.000000	
7.506985	2.197539	11.309923	-10.129777	-0.660311	1.645988	20.353778	-907.368765	0.000000	
3.029179	1.624410	4.581518	-1.347778	0.645629	0.812027	-178.805254	-314.883699	0.000000	
-8.939148	-0.578083	-7.648494	21.685439	4.151333	-1.208590	476.400623	-2840.309563	0.000000	
3.561814	1.627291	7.176042	-2.810743	0.456342	0.978149	-92.229207	-405.220736	0.000000	
1.697615	1.432027	4.588687	0.891898	0.925026	0.598364	-223.133522	176.045938	0.000000	
7.415913	2.332253	9.751769	-9.829107	-0.566783	1.535334	14.664779	-1022.162474	0.000000	
4.405273	1.460068	7.689237	-4.361957	0.360124	1.103473	-79.767573	-578.747819	0.000000	
5.423412	1.909470	9.417145	-5.953163	0.051070	1.322035	-38.523944	-644.351873	0.000000	
3.652792	1.410273	4.750126	-2.382285	0.581624	0.936854	-166.378253	-518.991361	0.000000	
-0.340876	0.923925	2.347995	5.024815	1.545973	0.255232	-651.064132	2117.153418	0.000000	
6.351907	2.053187	9.584201	-7.632708	-0.256734	1.392964	-11.186017	-809.217068	0.000000	
-5.388082	0.081255	-4.896103	14.451369	3.125773	-0.561913	575.886493	-2951.488027	0.000000	
1.430174	1.471881	4.590605	1.710544	1.170055	0.563487	-273.148096	353.815536	0.000000	
6.046689	1.741700	9.585464	-7.547701	-0.227020	1.410314	-12.498003	-798.418984	0.000000	
5.997101	2.271334	9.587525	-7.502658	-0.529179	1.339138	19.310566	-796.648928	0.000000	
7.860017	2.332596	11.827736	-10.559725	-0.692139	1.700954	20.444428	-904.671634	0.000000	
5.243837	1.733902	7.684378	-5.524018	-0.005918	1.156661	-38.305895	-732.336565	0.000000	
3.469171	1.803145	6.310856	-2.164471	0.550772	0.887462	-118.904794	-359.820091	0.000000	
2.857142	1.267931	5.967347	-1.606653	0.733265	0.904074	-150.531571	-281.975470	0.000000	
-3.043280	0.323263	-1.101218	10.103829	2.412765	-0.215580	2035.150465	-9159.482363	0.000000	
5.686577	1.914321	9.067946	-6.556652	-0.041112	1.266957	-31.439755	-735.715880	0.000000	
-8.980040	-0.574781	-9.033078	21.554892	4.181994	-1.212002	406.397957	-2390.600989	0.000000	
0.498708	1.109621	3.035574	3.560924	1.389620	0.345689	-467.783565	1151.741711	0.000000	
2.902498	1.444086	5.795525	-1.390616	0.704001	0.957888	-150.360821	-254.740023	0.000000	
5.868376	2.136917	8.550036	-6.685246	-0.253049	1.391233	-9.701672	-796.732930	0.000000	
7.543901	2.462635	11.828718	-10.214722	-0.721061	1.540008	24.387202	-876.046847	0.000000	
6.931962	2.146746	10.794387	-8.924074	-0.413924	1.591999	1.526844	-838.704267	0.000000	
3.998578	1.809198	7.518696	-3.542444	0.424002	0.925041	-87.019988	-485.465360	0.000000	
1.216440	1.117036	3.379704	2.139755	1.020901	0.613935	-323.050505	613.761793	0.000000	
-4.194586	0.312787	-2.305753	11.998106	2.812848	-0.378193	1117.066757	-5196.753081	0.000000	
1.394481	1.207797	4.071847	1.407944	0.926600	0.668756	-247.565436	328.319594	0.000000	
-0.822415	0.700320	-0.072943	6.400700	2.006512	0.232750	26874.516519	-87211.387852	0.000000	
-7.515443	-0.252780	-6.442224	18.757538	3.776857	-0.867163	520.022707	-2914.669778	0.000000	
5.694398	1.783792	8.030093	-6.644066	-0.041096	1.371700	-35.458072	-840.672602	0.000000	
3.999279	1.940792	7.173647	-3.154405	0.486343	0.960700	-99.863522	-455.713937	0.000000	
7.377677	2.153859	9.925934	-9.829147	-0.779211	1.642711	36.011150	-1003.237050	0.000000	
6.441629	1.963298	9.930066	-7.459978	-0.346954	1.447533	-2.245300	-763.157744	0.000000	
4.354433	1.810633	8.382877	-4.058414	0.209814	1.034093	-54.961593	-497.063250	0.000000	
1.965416	1.391925	4.067630	0.546516	1.045424	0.650785	-284.908890	114.344441	0.000000	
2.188994	1.481719	4.413743	0.159541	0.862172	0.740891	-223.952413	16.497534	0.000000	
2.315436	1.658002	5.624552	-0.054490	0.891064	0.690199	-182.309371	-27.040373	0.000000	
3.379553	1.493184	6.135949	-1.993178	0.582006	0.815065	-126.542730	-339.303048	0.000000	
3.647483	1.449847	7.000613	-2.423326	0.488948	0.924204	-99.864926	-358.592113	0.000000	
-6.363333	-0.060211	-5.237207	15.742681	3.432331	-0.723245	586.413569	-3007.388264	0.000000	
4.358886	1.723373	6.998268	-3.628911	0.394120	1.085043	-92.051596	-533.174080	0.000000	
3.427824	1.493769	6.309934	-2.251615	0.550217	0.904794	-118.466552	-370.932149	0.000000	
7.197605	2.196247	9.926597	-9.484537	-0.626640	1.571498	21.656545	-968.693834	0.000000	
6.610893	2.319571	10.275041	-7.889696	-0.348241	1.341092	-2.995394	-781.329755	0.000000	
2.858051	1.490021	5.449353	-1.649458	0.672900	0.920983	-153.697616	-318.843472	0.000000	
-2.070836	0.510051	0.104883	8.166753	2.012200	-0.106613	-18078.211613	77591.950674	0.000000	
-0.119149	1.057337	3.213586	4.724026	1.725652	0.347114	-535.693710	1450.743445	0.000000	
-4.062690	0.269091	-2.133928	11.912167	2.721960	-0.377939	1167.952762	-5576.008263	0.000000	
-2.684806	0.547301	-0.235035	9.286357	2.408646	-0.034603	9606.304503	-39380.649027	0.000000	
7.325487	2.019559	10.096516	-9.355445	-0.625438	1.482286	20.449180	-938.637279	0.000000	
1.873814	1.345779	3.894071	1.020410	1.047731	0.579055	-296.844757	241.838179	0.000000	
1.478114	1.076053	4.069146	1.579559	1.260727	0.579571	-330.994713	372.529094	0.000000	
6.131284	2.230438	9.067048	-7.762046	-0.348125	1.355787	-0.334400	-870.687167	0.000000	
7.766696	2.508869	11.308530	-10.214786	-0.720249	1.592743	24.367958	-916.542416	0.000000	
7.152906	2.194594	10.619645	-9.441101	-0.506214	1.591198	9.088114	-901.430144	0.000000	
4.749517	1.948998	7.514105	-4.317381	0.422350	0.996659	-92.460100	-589.936412	0.000000	
0.542000	1.327410	3.902884	3.950091	1.541695	0.420317	-403.593512	992.199418	0.000000	
-0.732949	0.747944	1.138528	5.022661	1.727329	0.252007	-1481.825956	4373.864811	0.000000	
-1.492639	0.867737	0.970166	7.349925	1.978368	0.092601	-1953.667837	7524.948005	0.000000	
0.463769	1.110029	2.865295	3.345160	1.418174	0.524221	-504.817708	1144.925441	0.000000	
-1.713780	0.912287	-0.240570	7.607630	1.919674	0.018168	7579.205943	-31411.447847	0.000000	
6.041252	1.873626	8.892223	-6.987367	-0.253776	1.301902	-10.367729	-798.419171	0.000000	
3.252150	1.582020	6.311800	-2.423996	0.548942	0.904633	-116.668065	-398.918069	0.000000	
4.093652	1.721879	7.346185	-3.801163	0.271485	1.049547	-69.009754	-531.397751	0.000000	
7.193934	2.016416	10.963910	-9.182653	-0.474727	1.538327	5.696164	-848.666438	0.000000	
7.060488	2.104729	10.445396	-9.139506	-0.686007	1.483203	26.961950	-887.097868	0.000000	
7.147716	2.415375	10.273285	-9.138971	-0.504237	1.501432	9.257001	-903.590690	0.000000	
3.737964	1.761716	6.829049	-2.939525	0.275045	0.977327	-71.774802	-445.731583	0.000000	
-1.943959	0.951326	0.971278	8.168678	2.102652	-0.121617	-2053.319329	8354.466613	0.000000	
-2.866747	0.545507	-0.581537	9.803108	2.501998	-0.160345	4025.007747	-16805.418549	0.000000	
-5.303908	0.170017	-4.204702	14.193611	3.094280	-0.614110	664.345269	-3374.196018	0.000000	
-0.474434	0.968763	1.829183	5.067350	1.637172	0.200368	-881.263534	2739.751437	0.000000	
3.647588	1.759636	7.175728	-2.594810	0.518109	0.960774	-101.511680	-376.181111	0.000000	
3.866375	1.805633	7.693234	-3.067976	0.304538	0.943614	-68.570943	-412.770533	0.000000	
7.239582	2.106802	10.791108	-9.570331	-0.597266	1.555481	16.918166	-898.639089	0.000000	
6.751242	2.325425	9.409792	-8.752480	-0.381709	1.445736	-0.478512	-944.824730	0.000000	
6.527989	2.055126	10.102084	-8.192315	-0.440637	1.393568	6.573557	-823.180275	0.000000	
7.773850	2.111704	10.961599	-10.345368	-0.811625	1.680673	33.463552	-955.404607	0.000000	
6.615188	2.146359	9.581908	-8.408074	-0.380295	1.356552	0.164989	-890.875880	0.000000	
3.916409	1.720069	7.001138	-3.284681	0.545874	1.031493	-110.143643	-483.761667	0.000000	
-0.557900	0.791001	1.137410	5.325247	1.426693	0.252171	-1227.600514	4642.072138	0.000000	
-1.359728	1.002425	1.489510	6.790316	2.005911	0.129434	-1296.259307	4520.184280	0.000000	
-6.718451	-0.420750	-5.063600	16.905312	3.587879	-0.776044	633.329796	-3344.070483	0.000000	
0.417814	1.331292	2.520044	3.388717	1.327906	0.487816	-537.027722	1314.251560	0.000000	
3.961700	1.542460	7.519727	-3.284860	0.636190	1.068418	-114.950545	-449.154186	0.000000	
6.885529	2.058435	10.100679	-8.709029	-0.623880	1.500600	22.730135	-874.469395	0.000000	
3.866673	1.718856	6.826721	-2.982748	0.336024	0.905714	-81.789378	-451.862509	0.000000	
5.695631	2.004143	8.205077	-6.686210	-0.162663	1.426017	-19.911052	-829.404598	0.000000	
6.485347	1.877340	9.062934	-7.504006	-0.346092	1.391588	-2.750549	-840.423962	0.000000	
6.444482	2.322384	8.547048	-7.977654	-0.227263	1.462314	-16.503735	-949.439760	0.000000	
-0.868635	0.611820	1.138228	5.840883	2.003071	0.199074	-1717.783093	5100.583621	0.000000	
4.266859	1.633499	7.863126	-3.757863	0.362658	1.015079	-77.355575	-490.378475	0.000000	
3.566332	1.494478	6.830193	-2.725006	0.365976	1.048776	-83.666131	-412.054298	0.000000	
4.534127	1.768472	6.997025	-3.585596	0.455302	1.085341	-102.216954	-527.439817	0.000000	
2.408202	1.350388	5.623026	-0.443201	0.828894	0.743090	-172.227899	-93.106444	0.000000	
4.138509	1.765540	7.346545	-3.628626	0.332720	1.085711	-77.684156	-508.219797	0.000000	
-3.216830	0.675067	-1.442997	10.449120	2.534666	-0.125942	1630.660795	-7215.827941	0.000000	
0.104659	0.975201	3.038373	3.602890	1.630609	0.363430	-539.391880	1166.974181	0.000000	
2.364454	1.261009	5.449857	-0.184995	0.860317	0.742804	-182.990951	-47.740308	0.000000	
3.514681	1.449258	6.308767	-2.079151	0.521066	0.887012	-114.640091	-343.267471	0.000000	
5.689874	2.047171	9.069626	-6.771541	-0.223870	1.338409	-11.303966	-760.094934	0.000000	
4.397993	1.720441	8.209201	-3.369459	0.545809	1.052538	-97.334509	-423.020810	0.000000	
3.652191	1.631115	6.482827	-3.285327	0.364292	0.976000	-88.590369	-521.703807	0.000000	
5.820159	2.003108	8.548506	-6.340914	-0.160507	1.301865	-20.212264	-755.717287	0.000000	
6.353324	2.186848	9.758434	-7.977102	-0.258573	1.429064	-10.820086	-830.843879	0.000000	
2.898922	1.624233	6.141304	-2.252002	0.609494	0.868447	-126.517774	-382.349947	0.000000	
4.708676	1.770000	7.168201	-3.843736	0.303420	1.049626	-79.972817	-550.887847	0.000000	
5.245993	1.868699	7.685476	-6.041010	-0.008386	1.192179	-37.995168	-800.484818	0.000000	
6.267354	2.190697	8.373709	-8.280061	-0.289150	1.389553	-8.251524	-1004.308199	0.000000	
-0.825930	0.697648	2.177502	5.971313	2.033026	0.237694	-913.155767	2723.487244	0.000000	
-1.393040	0.613907	-1.454876	5.967710	1.943973	0.138859	1281.666693	-4079.006252	0.000000	
-5.967441	0.075123	-5.412681	15.657129	3.402872	-0.705380	566.038408	-2892.709292	0.000000	
-0.155963	0.973910	1.829289	4.118992	1.663241	0.396746	-905.231698	2221.004622	0.000000	
-0.116006	1.063895	0.962318	4.291122	1.604776	0.287470	-1661.639301	4396.308872	0.000000	
7.685436	2.290819	10.097079	-10.475146	-0.720878	1.642963	27.900033	-1050.985886	0.000000	
6.176365	2.012844	7.679893	-7.720831	-0.225458	1.298626	-16.554429	-1020.849042	0.000000	
5.912500	2.141977	8.202596	-7.547784	-0.256265	1.335842	-9.989063	-935.634795	0.000000	
1.662019	1.256422	3.378099	1.105690	1.107816	0.721009	-356.333573	305.630043	0.000000	
5.603488	2.094097	8.204890	-6.902077	0.108721	1.336591	-52.357190	-856.348206	0.000000	
1.573117	1.610838	4.246319	0.417470	1.103688	0.740765	-281.490110	76.215919	0.000000	
1.616173	1.082240	2.164255	1.190185	1.230507	0.610560	-611.246073	521.058156	0.000000	
0.459267	1.111260	2.863772	3.172678	1.417854	0.416557	-504.885604	1085.281450	0.000000	
4.807114	1.863262	7.170316	-5.050508	0.176542	1.227647	-63.024869	-719.756447	0.000000	
5.779592	1.914593	8.722318	-6.599451	-0.343625	1.355405	1.429969	-769.745582	0.000000	
3.604996	1.491272	7.521570	-2.164124	0.489255	0.997390	-92.726521	-299.659587	0.000000	
1.345252	0.940450	4.069405	2.053456	1.171812	0.561735	-307.292092	490.828778	0.000000	
-1.851015	0.639795	2.009457	8.168653	2.162066	0.005916	-1025.048125	4046.426140	0.000000	
2.186591	1.392608	5.797897	-0.227876	1.010648	0.725907	-196.260802	-53.592887	0.000000	
3.960456	1.628645	7.693368	-2.982328	0.425655	1.069033	-84.998948	-400.339885	0.000000	
4.757743	1.679159	9.073890	-4.316542	0.238738	1.214744	-56.517445	-486.906099	0.000000	
2.145701	1.349496	4.586523	-0.013343	0.951894	0.740998	-234.578090	-20.230874	0.000000	
5.382529	1.822457	9.071291	-6.126380	0.171305	1.356840	-52.964236	-687.444427	0.000000	
5.460831	1.861710	9.415197	-5.090734	-0.095747	1.215199	-23.161086	-552.600728	0.000000	
6.218179	2.005933	9.931105	-7.287675	-0.316266	1.375987	-4.072813	-745.969024	0.000000	
7.064430	2.098445	11.659758	-8.405741	-0.563473	1.666090	13.543784	-731.829831	0.000000	
5.694600	1.647822	9.761358	-6.815304	-0.164460	1.429052	-16.672055	-708.476692	0.000000	
2.452549	1.790240	5.799235	-0.010749	0.921127	0.834301	-183.352238	-19.987287	0.000000	
2.855761	1.311854	6.140430	-1.606393	0.733196	0.886636	-146.286844	-274.409208	0.000000	
0.548503	1.244103	2.864423	3.259137	1.569488	0.470814	-559.456274	1112.616460	0.000000	
-0.552294	0.743400	2.697895	5.368946	1.787783	0.453304	-651.959693	1973.776380	0.000000	
0.241648	0.713653	3.036464	2.740472	1.324540	0.397773	-441.463945	888.521175	0.000000	
-1.050655	0.917123	1.140307	6.574663	1.915367	0.128384	-1628.784105	5719.756616	0.000000	
-3.967358	0.313076	-1.093075	11.481866	2.869862	-0.178541	2421.059243	-10488.933182	0.000000	
4.980794	1.906564	8.554026	-5.393674	-0.037349	1.230553	-29.091769	-643.860762	0.000000	
6.707127	2.276050	10.622780	-8.234431	-0.290056	1.520786	-8.908787	-788.001967	0.000000	
4.227374	1.546894	7.690660	-4.232398	0.269600	1.067682	-66.684523	-562.428025	0.000000	
6.486083	2.139039	10.970211	-7.631287	-0.197512	1.521949	-15.956935	-707.390363	0.000000	
6.793700	2.012744	10.965967	-8.751915	-0.473552	1.448899	7.635703	-809.209160	0.000000	
-0.242918	0.924480	2.523359	4.723285	1.543840	0.470390	-607.205599	1850.455462	0.000000	
4.671102	1.901436	8.556598	-4.488960	0.207795	1.231495	-55.702166	-537.900901	0.000000	
4.668331	1.813193	8.035638	-4.316713	-0.002369	1.140495	-33.089100	-550.669373	0.000000	
3.918884	1.541606	7.001040	-2.940351	0.607699	1.085379	-118.995814	-433.155439	0.000000	
-0.071523	1.014473	3.733118	3.991875	1.358901	0.400938	-363.724764	1053.253524	0.000000	
7.016814	2.104628	9.580167	-8.623307	-0.410901	1.481925	1.007706	-913.259851	0.000000	
6.666536	2.189030	10.103657	-8.536452	-0.593649	1.536679	20.947223	-857.856506	0.000000	
2.278176	1.305187	4.412374	0.245165	0.983737	0.758818	-252.706766	38.153212	0.000000	
-3.529593	0.405795	-1.789651	11.223922	2.477585	-0.252084	1272.949703	-6259.661491	0.000000	
-1.179388	0.961328	1.835022	6.014790	1.881387	0.201074	-989.992455	3247.568687	0.000000	
-2.424547	0.637407	0.108687	9.114674	2.408562	-0.087380	-20909.706842	83531.957908	0.000000	
4.534084	1.945938	7.517463	-4.015723	0.392375	1.104263	-86.823945	-549.522816	0.000000	
2.807366	1.487386	5.448245	-0.916870	0.857976	0.814382	-187.176528	-184.417767	0.000000	
7.769811	2.464161	11.136000	-10.171632	-0.901622	1.645859	41.029152	-926.629260	0.000000	
6.708788	2.100786	10.102332	-8.407567	-0.441553	1.501038	5.659808	-844.720832	0.000000	
5.864307	1.917572	8.374038	-6.815527	-0.162199	1.265051	-20.710729	-827.548883	0.000000	
7.949306	2.643840	11.829058	-11.032577	-0.966410	1.736549	43.204764	-946.020729	0.000000	
4.316321	1.591607	7.171081	-4.017026	0.271149	1.084708	-72.371042	-573.436264	0.000000	
5.774234	2.092492	9.068097	-6.814558	-0.163023	1.266899	-18.537709	-765.247113	0.000000	
-2.556062	0.815252	0.110622	8.684045	2.315507	-0.087731	-19635.963186	78087.387025	0.000000	
-0.161174	1.061718	0.789410	4.722509	1.425303	0.269345	-1794.860916	5906.050948	0.000000	
-5.392212	0.300235	-3.683465	14.366734	3.124467	-0.576706	765.316517	-3896.570784	0.000000	
3.121819	1.534584	6.659709	-2.122013	0.458672	0.959242	-95.961657	-332.376273	0.000000	
-7.209819	-0.116399	-6.444868	18.241121	3.594149	-0.921202	494.120549	-2832.159001	0.000000	
-1.885414	0.641646	0.973348	8.081436	2.252463	0.164672	-2206.242169	8264.917210	0.000000	
0.638821	1.112499	2.863341	2.957537	1.265854	0.487966	-455.395405	1010.284397	0.000000	
7.683525	2.332235	11.309361	-10.430930	-0.721741	1.663863	24.910683	-934.710731	0.000000	
4.453591	1.726289	6.825900	-4.275415	0.239940	1.191382	-72.547182	-641.354681	0.000000	
5.243161	1.820805	8.723969	-5.652416	0.083254	1.195059	-44.052161	-660.441339	0.000000	
1.173162	1.160992	4.073189	1.838453	1.109463	0.651243	-289.329667	434.549061	0.000000	
1.699311	1.433250	3.896442	1.020398	1.107570	0.614960	-309.509136	240.427886	0.000000	
0.275872	0.885712	3.554868	3.861949	1.601902	0.293215	-455.763655	1071.590715	0.000000	
5.513621	1.911783	8.377779	-5.996685	-0.159769	1.319362	-18.643259	-729.401091	0.000000	
6.798953	2.190084	9.237004	-8.149182	-0.469859	1.535234	8.780567	-896.348234	0.000000	
3.342097	1.579814	6.312316	-1.734593	0.884615	0.995315	-170.635549	-289.650382	0.000000	
5.554771	2.179133	8.031708	-6.168736	-0.099440	1.265119	-27.211448	-784.083887	0.000000	
0.722374	1.329622	4.248872	3.390169	1.478547	0.510218	-358.312572	779.527412	0.000000	
2.547178	1.352182	5.623889	-0.788054	0.887627	0.886229	-184.031713	-154.429507	0.000000	
-1.224924	0.783630	0.968212	6.703081	2.066760	0.145857	-2064.417676	6876.931053	0.000000	
-7.332883	-0.428058	-6.096601	18.326418	3.744400	-0.741537	545.904527	-3010.758105	0.000000	
-4.411353	-0.043645	-3.344037	12.815237	2.816671	-0.362617	767.492506	-3833.810280	0.000000	
2.676960	1.573512	5.450553	-0.614935	0.858715	0.868468	-185.890734	-129.831457	0.000000	
3.210584	1.534637	6.486323	-1.820743	0.762731	0.995350	-146.150624	-294.792783	0.000000	
4.674555	1.813202	8.556935	-4.661413	0.055572	1.284774	-37.933306	-557.454835	0.000000	
7.815231	2.375139	11.828358	-10.257793	-0.721170	1.701256	23.110134	-879.299779	0.000000	
7.688844	2.200188	10.444166	-10.259429	-0.781057	1.733376	32.690287	-994.944622	0.000000	
5.067411	1.907930	8.033424	-5.221846	0.145722	1.193919	-54.319601	-664.153535	0.000000	
3.740758	1.674209	6.482863	-2.983257	0.335485	1.012225	-84.912859	-475.478820	0.000000	
4.758329	1.815532	8.554685	-5.006169	-0.005762	1.176936	-31.322813	-597.916782	0.000000	
4.755746	1.766515	9.247210	-4.143699	0.239434	1.197544	-55.536006	-459.633910	0.000000	
-3.436734	0.409450	-1.789459	10.447962	2.474076	-0.181129	1274.036916	-5826.588696	0.000000	
-0.512009	1.187937	1.833137	5.326464	1.758422	0.380211	-944.357824	2868.481669	0.000000	
0.154224	0.884470	2.693183	4.163067	1.542253	0.488372	-576.650984	1526.540006	0.000000	
5.333775	1.910599	8.724423	-5.953724	-0.008817	1.248604	-34.079393	-695.520650	0.000000	
2.629057	1.617381	5.623235	-0.571713	0.919433	0.797361	-190.526193	-118.620783	0.000000	
-2.018049	0.154430	1.144186	8.037183	2.100866	0.092389	-1737.948593	7015.981166	0.000000	
-4.635936	0.040804	-2.823146	13.246821	2.817767	-0.414725	905.170672	-4692.222305	0.000000	
6.224983	1.963144	9.066805	-7.288520	-0.285765	1.481392	-7.792036	-816.830035	0.000000	
5.646305	1.827083	8.549040	-6.729617	-0.162718	1.301090	-18.811403	-799.982334	0.000000	
6.751704	2.101701	9.928368	-8.493754	-0.532266	1.464644	14.667042	-868.193761	0.000000	
6.489131	2.229314	9.759154	-7.631616	-0.438600	1.536862	6.846848	-795.625516	0.000000	
2.141445	1.346250	5.624751	0.246219	0.922113	0.707855	-186.087374	29.532119	0.000000	
4.629769	1.770544	7.344493	-4.317904	0.300170	1.228658	-77.026815	-602.249385	0.000000	
4.934452	1.950205	8.380967	-5.092278	0.175889	1.194875	-54.809106	-621.469262	0.000000	
6.000140	2.006008	9.240653	-7.116422	-0.043409	1.392570	-32.522214	-783.114325	0.000000	
6.527907	2.143059	10.449000	-8.277964	-0.471631	1.412321	9.295797	-804.545950	0.000000	
2.673953	1.617397	5.969390	-0.829686	0.676071	0.815611	-139.177205	-155.005389	0.000000	
-0.246351	1.012789	2.696139	4.766631	1.634852	0.417328	-602.028316	1746.057154	0.000000	
1.564568	1.340097	4.416257	1.710215	1.140184	0.598768	-278.844004	369.415757	0.000000	
-4.325119	0.264326	-2.304032	12.687842	2.724586	-0.324020	1076.415296	-5501.174401	0.000000	
1.791083	1.255726	4.934788	0.633050	0.953659	0.706249	-214.404356	113.192680	0.000000	
-3.399499	0.450669	-1.444573	11.138075	2.568109	-0.269006	1644.936032	-7693.596883	0.000000	
1.169921	1.207695	2.860083	2.009845	1.232642	0.541244	-454.719699	678.217483	0.000000	
-2.243490	0.641909	-0.411374	8.381884	2.164007	-0.035730	4953.647870	-20288.579923	0.000000	
6.712149	2.010509	11.315167	-8.622491	-0.383434	1.611123	-0.184249	-772.811809	0.000000	
6.529517	1.965174	9.929077	-7.804666	-0.438910	1.429240	6.519184	-797.959309	0.000000	
6.219334	2.094964	9.239330	-7.072550	-0.224088	1.392705	-14.302493	-779.018103	0.000000	
4.669949	1.857398	8.209659	-4.316827	0.239244	1.194980	-61.845728	-539.329994	0.000000	
5.245604	1.818197	8.725059	-5.221012	-0.066361	1.266985	-26.914712	-610.897868	0.000000	
3.690875	1.713003	7.694794	-2.292572	0.458595	0.980120	-87.298449	-311.241693	0.000000	
3.694818	1.714485	7.176196	-2.465338	0.397525	1.032398	-85.071061	-357.761724	0.000000	
2.185541	1.125329	5.623053	0.288747	0.922525	0.689680	-186.656674	39.308942	0.000000	
1.660532	1.254241	4.936379	0.805289	1.014400	0.742223	-225.156289	148.064618	0.000000	
-0.338054	0.705235	2.173946	4.678797	1.756254	0.272290	-799.926856	2133.199330	0.000000	
0.460738	1.153335	3.557464	3.259604	1.417377	0.490014	-406.477754	897.268502	0.000000	
4.583067	1.903817	7.517861	-4.576170	0.238469	1.175170	-66.712887	-623.728023	0.000000	
2.228408	1.257899	5.796452	0.289256	0.952745	0.690355	-186.724966	36.913199	0.000000	
4.848075	1.904939	8.208848	-4.834177	0.328025	1.230586	-73.884534	-602.731644	0.000000	
-3.528499	0.320512	-1.617299	10.447793	2.443822	-0.270524	1387.850512	-6449.717345	0.000000	
0.153281	1.281246	3.041901	4.164625	1.451044	0.525526	-480.633603	1344.640432	0.000000	
-6.539081	-0.152132	-4.889650	16.087603	3.342282	-0.704521	607.718984	-3292.691990	0.000000	
3.741185	1.627994	7.002511	-2.810499	0.335690	1.049393	-78.702720	-415.213246	0.000000	
5.242231	1.997724	8.205295	-5.479684	-0.036491	1.176219	-32.186980	-682.296280	0.000000	
2.854580	1.442797	5.621793	-0.959814	0.796979	0.886310	-171.043731	-185.943668	0.000000	
5.733824	2.000960	8.723118	-6.082211	-0.129720	1.356249	-22.797548	-710.935244	0.000000	
5.470293	2.091625	8.205796	-6.557099	-0.011031	1.318794	-36.847177	-814.196020	0.000000	
3.030226	1.446429	5.619811	-1.606124	0.643507	0.849799	-145.548274	-301.050863	0.000000	
3.649498	1.627459	6.309723	-2.165169	0.792893	0.977157	-158.902308	-358.432860	0.000000	
1.877160	1.432258	5.281154	0.676932	1.014300	0.707507	-212.791209	112.149151	0.000000	
3.916348	1.805739	7.002145	-2.723885	0.517967	1.067980	-106.141876	-404.289564	0.000000	
2.900062	1.357221	4.755137	-1.090161	0.857803	0.866176	-215.401828	-246.087060	0.000000	
-1.849807	0.687470	0.451128	8.167470	2.193713	-0.033512	-4633.453461	18018.253217	0.000000	
-1.799559	0.864871	0.453637	7.909504	2.101328	0.109754	-4410.388689	17327.981942	0.000000	
1.878221	1.301609	4.241328	0.718927	0.954995	0.668989	-250.798681	151.473300	0.000000	
6.043834	2.004259	9.759945	-7.029437	-0.224878	1.411638	-12.491640	-732.568316	0.000000	
5.430918	1.823459	8.033066	-5.997425	-0.069362	1.408020	-30.086172	-760.141466	0.000000	
1.432057	1.385174	3.897694	1.666574	1.200676	0.561701	-329.450224	406.826751	0.000000	
2.408675	1.306390	4.930333	-0.056192	1.042917	0.741994	-239.729635	-27.077083	0.000000	
0.467733	0.889110	3.384503	3.043068	1.476628	0.596547	-444.832282	883.565358	0.000000	
2.894075	1.752175	7.007345	-1.561201	0.672429	0.853534	-119.921166	-237.637559	0.000000	
6.265473	1.830723	9.064565	-7.245611	-0.375805	1.391591	1.888753	-811.478306	0.000000	
4.406735	1.635840	7.344668	-4.016807	0.361699	1.157006	-83.698477	-560.210636	0.000000	
7.410776	2.282815	10.962941	-9.224566	-0.625409	1.502845	18.331662	-853.927995	0.000000	
6.086785	1.830237	9.238314	-7.246046	-0.134238	1.338393	-23.224712	-796.275860	0.000000	
5.597892	2.090948	8.896405	-6.470342	0.080136	1.266967	-45.100350	-741.298707	0.000000	
5.420127	1.909566	8.550379	-5.522635	-0.006432	1.230767	-35.602618	-659.237141	0.000000	
5.738473	1.959708	9.416261	-7.159531	-0.195871	1.428353	-14.179842	-772.827017	0.000000	
-1.933223	0.818298	0.800499	8.168113	2.162402	0.092822	-2566.602521	10145.611334	0.000000	
-1.802413	0.557760	0.104106	7.649685	2.070759	-0.017231	-18920.279585	73178.531598	0.000000	
-5.566632	0.077031	-4.548615	15.055026	3.158008	-0.578500	624.825540	-3309.667241	0.000000	
0.195400	0.840259	3.903857	3.689690	1.539442	0.454910	-397.934421	932.250067	0.000000	
-5.262059	0.299334	-2.645855	14.195385	3.032493	-0.574417	1033.753911	-5359.606883	0.000000	
0.460013	1.243226	3.211184	3.044239	1.265599	0.453118	-402.947279	925.475760	0.000000	
2.497893	1.487767	5.622881	-1.477245	0.673281	0.742163	-145.452382	-278.379032	0.000000	
5.993416	2.135314	10.105740	-6.856198	-0.345067	1.305176	0.081909	-691.114271	0.000000	
4.798257	2.037380	8.900841	-5.177888	0.114508	1.124335	-43.899267	-595.386103	0.000000	
6.621440	2.010688	10.102881	-8.106244	-0.349780	1.519155	-2.939201	-814.349154	0.000000	
4.095385	1.588694	7.346011	-3.629316	0.423354	1.085512	-89.698326	-506.999775	0.000000	
5.114962	1.820277	8.552753	-5.824644	-0.220449	1.247805	-8.567906	-693.779972	0.000000	
1.601672	1.208124	4.239874	1.882070	1.202397	0.437185	-305.575784	427.097107	0.000000	
3.875936	1.365535	7.000295	-3.242408	0.424835	1.066671	-92.541922	-474.939414	0.000000	
6.441017	2.320689	9.585238	-8.063009	-0.258581	1.428829	-11.513818	-855.587551	0.000000	
5.771275	1.999112	10.625966	-6.382603	-0.041432	1.288935	-27.362533	-612.029698	0.000000	
7.016435	2.148317	10.619304	-9.053344	-0.504480	1.501847	9.646243	-864.700175	0.000000	
-0.385851	1.234955	1.830264	4.895834	1.575983	0.236424	-850.027130	2636.260819	0.000000	
2.148229	1.305592	4.413713	-0.099634	0.830514	0.776136	-216.263078	-39.983577	0.000000	
-0.117745	0.972635	1.827491	4.507323	1.574802	0.289571	-858.901225	2435.724675	0.000000	
-0.569193	0.963821	2.867638	5.714605	1.760258	0.131880	-603.486048	1973.120746	0.000000	
-0.517926	1.054532	3.042763	5.025285	1.726315	0.275062	-558.587964	1631.294829	0.000000	
-2.866013	0.544395	-0.061686	9.760466	2.470991	-0.123358	37449.625296	-157732.742024	0.000000	
-4.905302	0.084813	-2.995674	13.289430	3.029604	-0.540392	918.663407	-4435.431855	0.000000	
2.717221	1.398030	5.794043	-1.002926	0.706059	0.761013	-148.959994	-187.447066	0.000000	
6.968041	2.144522	11.657896	-8.707645	-0.503754	1.468791	8.887365	-758.065266	0.000000	
7.014930	2.324281	10.966423	-9.052468	-0.565271	1.502869	14.867021	-838.176110	0.000000	
7.639803	2.554551	10.445218	-10.301894	-0.599623	1.662370	15.580283	-1000.813566	0.000000	
7.283231	2.239783	10.964721	-9.613128	-0.446322	1.574158	2.648177	-889.006751	0.000000	
6.794655	2.058699	9.581028	-8.451201	-0.410527	1.428129	2.269491	-894.945671	0.000000	
0.457477	1.019586	3.555849	3.561063	1.388786	0.418419	-398.569981	984.565324	0.000000	
1.385061	1.033214	3.894537	1.320684	1.139076	0.435322	-313.222515	323.413747	0.000000	
-0.296561	1.101809	2.175614	4.938896	1.606256	0.273014	-731.439099	2240.887606	0.000000	
0.017942	0.838952	3.212169	4.077176	1.420464	0.399652	-443.314347	1253.823492	0.000000	
3.603183	1.937940	6.310928	-2.637878	0.337137	0.922887	-86.243338	-436.028252	0.000000	
0.010288	1.058317	3.211758	4.681126	1.665563	0.293352	-519.550133	1438.195233	0.000000	
0.415707	1.023334	2.517225	3.172152	1.387843	0.397624	-561.392006	1236.555032	0.000000	
1.789539	1.653735	4.763658	0.634183	0.863018	0.706340	-203.032554	112.838041	0.000000	
5.776050	2.269484	9.242836	-7.029333	-0.255106	1.321011	-8.250441	-775.106629	0.000000	
-0.162544	0.927687	1.827399	4.636495	1.575332	0.271687	-857.859326	2507.913218	0.000000	
-0.958544	0.963809	1.833408	5.756176	1.971525	0.218986	-1046.785923	3109.296140	0.000000	
2.367448	1.349671	5.104857	-0.227833	0.678686	0.795624	-159.757576	-60.278015	0.000000	
5.687066	2.045675	8.896016	-6.211540	-0.009350	1.302952	-35.605625	-711.953610	0.000000	
3.601118	1.583670	6.654610	-2.466593	0.610112	0.869893	-122.832992	-384.824783	0.000000	
4.135433	1.723321	6.306134	-3.457248	0.395272	0.975924	-100.262845	-564.381654	0.000000	
7.508735	2.463647	11.311962	-10.387654	-0.691961	1.699845	23.139192	-931.322081	0.000000	
6.571404	2.055722	9.755239	-8.063308	-0.379088	1.375056	0.276176	-839.198367	0.000000	
7.686500	2.551563	11.658210	-10.343677	-0.782600	1.772530	29.347665	-900.336950	0.000000	
5.110800	1.862822	8.205979	-5.049331	0.146480	1.194465	-53.582973	-628.873357	0.000000	
5.773606	1.871825	9.066482	-6.815337	-0.072110	1.230832	-28.564360	-764.103616	0.000000	
1.254096	1.072236	4.762710	1.881737	1.230868	0.527580	-274.000356	381.653474	0.000000	
-7.114558	-0.247588	-5.232311	17.379354	3.709909	-0.757950	631.958141	-3325.012227	0.000000	
-2.559733	0.724538	-0.410071	9.502539	2.319883	-0.159946	5306.239549	-23074.561634	0.000000	
-2.291303	0.730419	-0.411597	8.425043	2.255108	-0.107148	5165.781969	-20370.386827	0.000000	
3.385121	1.717033	5.792230	-2.510328	0.670252	0.921654	-149.294420	-450.841306	0.000000	
2.714251	1.530217	5.274642	-0.614948	0.708418	0.706619	-163.966428	-133.676088	0.000000	
3.206226	1.669066	6.312365	-2.122088	0.610724	0.887184	-126.036943	-351.828193	0.000000	
6.306248	2.186061	9.411621	-7.675491	-0.347517	1.356751	-1.458650	-829.378703	0.000000	
3.650061	1.407185	7.000842	-2.768457	0.547761	0.959692	-108.283126	-407.536998	0.000000	
3.032375	1.400627	6.659291	-1.863892	0.520233	0.923471	-104.458375	-292.507427	0.000000	
6.878757	2.190947	10.792246	-8.837660	-0.503588	1.394952	10.112175	-831.093282	0.000000	
4.137574	1.769297	6.653026	-4.060392	0.361902	1.012012	-90.078437	-626.041831	0.000000	
2.538923	1.661797	5.103891	-0.528651	0.708356	0.724286	-167.486069	-122.659558	0.000000	
0.679992	0.933095	4.073655	3.087246	1.356414	0.472916	-343.125544	744.191859	0.000000	
5.821757	1.829040	8.374211	-6.858931	-0.162582	1.282759	-20.379479	-832.121757	0.000000	
6.614550	2.364713	10.449349	-8.277350	-0.410908	1.412781	3.019020	-805.650495	0.000000	
6.089189	1.918786	9.239511	-7.374981	-0.225790	1.392046	-13.327685	-810.665336	0.000000	
6.173924	1.830118	8.718035	-6.858349	-0.131767	1.319692	-25.408036	-799.276468	0.000000	
5.504282	2.087636	8.895950	-5.737550	0.113775	1.178088	-48.293561	-658.941925	0.000000	
0.375598	1.156960	1.999880	3.085805	1.417689	0.468169	-720.212062	1509.722421	0.000000	
-6.190321	0.024598	-4.545441	16.433448	3.465511	-0.702713	685.214388	-3615.878760	0.000000	
-3.131034	0.322837	-1.446732	10.318843	2.534746	-0.216119	1629.830889	-7120.809327	0.000000	
-0.830885	0.962810	2.350750	5.800309	1.669496	0.148365	-691.152629	2443.635469	0.000000	
1.476175	1.338036	4.936577	1.839796	1.200513	0.618047	-260.752847	356.665860	0.000000	
4.488037	1.813600	7.516195	-4.145257	0.240748	1.032079	-66.321323	-565.861473	0.000000	
6.217071	1.964013	9.930091	-7.762023	-0.348398	1.321672	-0.830991	-793.576997	0.000000	
6.968524	2.194863	9.579435	-9.011057	-0.472810	1.374085	7.753373	-954.335379	0.000000	
3.867317	1.585878	7.345626	-3.112192	0.425710	0.924631	-88.281634	-436.605969	0.000000	
3.379537	1.714149	6.310607	-1.992698	0.763182	0.851835	-151.771742	-331.823252	0.000000	
4.980885	1.817979	8.380450	-5.178783	0.145245	1.230419	-51.466681	-630.944464	0.000000	
5.061186	1.729835	9.242819	-5.350887	0.235377	1.089005	-56.977335	-590.237475	0.000000	
1.167540	1.338235	4.418990	1.752739	1.260395	0.562832	-300.834134	378.833332	0.000000	
1.475997	1.119758	4.068885	1.709068	1.231201	0.543903	-323.730207	403.779595	0.000000	
3.561867	1.494761	6.655792	-2.509932	0.579182	0.959231	-117.833396	-390.518633	0.000000	
2.321645	1.351091	4.758177	-0.271621	0.890605	0.741211	-215.337918	-73.830119	0.000000	
6.793234	2.366439	10.275514	-8.406697	-0.380823	1.466145	-0.820053	-831.863625	0.000000	
4.984088	1.818606	7.342311	-4.920775	0.056342	1.263944	-46.548457	-684.904591	0.000000	
6.309177	2.317971	9.759748	-7.761048	-0.348567	1.447264	-1.344026	-809.348563	0.000000	
-1.445325	0.866723	1.144178	7.479421	2.008803	0.182781	-1685.585269	6493.624026	0.000000	
0.637906	1.114539	2.516531	2.827518	1.507687	0.451446	-614.123241	1097.915155	0.000000	
-3.662618	0.406164	-1.789100	11.051229	2.537087	-0.288113	1302.428434	-6165.052727	0.000000	
1.437020	1.206633	4.244582	1.752702	1.139855	0.669768	-288.326766	396.163800	0.000000	
-1.892072	0.598974	1.317099	7.650651	2.099702	0.003597	-1514.372068	5782.384677	0.000000	
8.121350	2.514514	10.786479	-10.861475	-0.782286	1.608967	29.492040	-1020.845415	0.000000	
5.551791	1.867894	9.241232	-6.297946	-0.130986	1.213621	-20.321260	-693.658802	0.000000	
6.086460	2.137580	9.759976	-7.115252	-0.225076	1.393868	-12.716411	-742.124898	0.000000	
4.669120	1.815571	8.035543	-4.748285	0.177194	1.140264	-55.441104	-604.400458	0.000000	
4.802118	1.952493	6.996133	-5.050420	0.177121	1.119878	-64.617162	-738.359048	0.000000	
4.179410	1.942291	7.000128	-3.412605	0.213301	1.031524	-64.757918	-503.887073	0.000000	
-1.486401	0.518199	0.103273	6.830765	2.037138	0.125398	-18919.041502	65860.668209	0.000000	
2.138800	1.347701	4.584827	0.504004	0.954723	0.616103	-235.197203	92.622895	0.000000	
-0.385816	0.923023	2.867675	4.981928	1.635980	0.256488	-563.728766	1718.398083	0.000000	
3.027202	1.311012	6.138042	-1.174993	0.675420	0.815460	-138.497784	-204.224974	0.000000	
-0.431111	1.189098	2.522851	4.939190	1.666240	0.238110	-651.658382	1930.522286	0.000000	
6.617775	2.102912	9.062831	-8.322525	-0.288895	1.391268	-9.881601	-932.146138	0.000000	
4.845061	1.770662	8.726827	-4.704657	0.237677	1.177902	-59.173640	-551.299985	0.000000	
7.552775	2.332981	11.137312	-10.689837	-0.753375	1.663070	28.806804	-972.388129	0.000000	
2.762195	1.489986	4.755123	-1.176123	0.827308	0.740757	-207.362639	-265.732119	0.000000	
6.611017	2.453108	9.929459	-7.932713	-0.348167	1.340428	-3.080399	-813.581480	0.000000	
-4.279895	0.136814	-2.478797	11.781763	2.841967	-0.361197	1048.845960	-4750.732061	0.000000	
-4.463483	0.399254	-4.035967	13.117415	2.970243	-0.506485	673.103986	-3245.391715	0.000000	
-1.311358	0.872463	0.796524	6.487780	1.914368	0.163056	-2311.816818	8082.846803	0.000000	
4.533700	1.727644	7.169116	-4.447776	0.300309	1.030921	-78.159400	-634.741971	0.000000	
6.172630	2.315875	9.586520	-7.287075	-0.346313	1.357654	-0.789930	-774.505020	0.000000	
5.515569	1.781680	8.377064	-6.557549	-0.162255	1.318606	-18.361135	-795.544319	0.000000	
6.132880	1.830920	8.892219	-7.203207	-0.103545	1.373508	-27.840577	-822.422944	0.000000	
5.687833	2.000694	9.415435	-6.426427	-0.252780	1.321558	-7.835050	-695.277118	0.000000	
1.039829	1.205922	3.208150	2.053071	1.262205	0.595794	-412.410332	618.051337	0.000000	
2.757991	1.661838	5.448531	-0.355988	0.890880	0.743544	-192.697206	-83.262763	0.000000	
5.775444	1.825870	9.586410	-6.814741	-0.254233	1.285548	-8.070522	-722.374713	0.000000	
-0.562256	0.966740	1.830189	5.412135	1.668633	0.218596	-895.277477	2926.695896	0.000000	
-2.288582	0.640812	-0.064815	8.511170	2.345665	-0.034615	34208.266324	-130761.122935	0.000000	
1.216507	0.855261	3.031109	1.578271	0.988758	0.540463	-349.509554	504.046479	0.000000	
4.265223	1.852724	8.210710	-3.498366	0.423931	1.034471	-81.565682	-439.547083	0.000000	
6.846589	2.013755	9.929177	-8.580261	-0.442248	1.607908	5.063618	-876.338533	0.000000	
4.937699	2.040587	7.862575	-5.437012	-0.037121	1.229037	-31.302404	-706.880035	0.000000	
7.058028	2.235251	10.619159	-8.622006	-0.441873	1.484588	3.530899	-824.552530	0.000000	
5.773844	1.959407	8.720968	-6.470493	-0.040129	1.248434	-33.333452	-755.365846	0.000000	
-1.318727	1.179089	1.835764	6.705047	1.914763	0.094539	-1003.514652	3615.604493	0.000000	
0.550544	0.891824	2.862433	2.870394	1.386382	0.451785	-495.915725	984.486899	0.000000	
-4.995049	-0.051693	-2.995768	14.065026	3.032901	-0.557799	918.054169	-4696.746691	0.000000	
1.965917	1.345224	6.318872	-0.055245	0.949885	0.727023	-168.568874	-21.500544	0.000000	
2.896896	1.490251	5.447505	-1.563161	0.643610	0.813574	-148.772776	-303.112059	0.000000	
6.842003	2.323603	9.583474	-8.407319	-0.380436	1.536128	-1.148344	-891.689448	0.000000	
6.572019	1.836376	9.061159	-8.021577	-0.257177	1.337422	-13.100317	-897.454565	0.000000	
5.951715	2.271266	8.894916	-7.072460	-0.314942	1.302289	-2.923504	-810.252371	0.000000	
0.105667	1.151765	2.000879	4.076966	1.542725	0.379520	-774.773979	2004.476663	0.000000	
4.671588	1.595428	8.207805	-5.093538	0.084721	1.157817	-43.044443	-632.291679	0.000000	
0.284047	0.976673	2.345255	3.688942	1.510835	0.415612	-651.792194	1548.759637	0.000000	
4.047801	1.632626	6.826235	-3.198862	0.637597	1.013309	-127.462436	-482.845160	0.000000	
-3.754688	0.315504	-1.616674	11.482015	2.629670	-0.359034	1495.494636	-7092.108474	0.000000	
2.674755	1.437192	5.969092	-0.097280	0.709452	0.851934	-144.784025	-30.619419	0.000000	
4.488828	1.726182	7.688841	-4.447305	0.239272	1.032057	-64.663528	-591.819793	0.000000	
-1.447101	0.868233	0.970276	7.306715	2.068894	0.128518	-2049.378911	7479.534032	0.000000	
8.074269	2.292672	12.169860	-11.292286	-0.724707	1.557781	21.535865	-939.272634	0.000000	
5.771005	2.004389	9.585985	-7.073045	-0.194534	1.196047	-14.272625	-750.397623	0.000000	
8.164500	2.512844	11.478839	-10.774643	-0.782409	1.628642	27.465531	-951.748282	0.000000	
-1.357931	0.782744	1.488387	6.487889	2.004587	0.128802	-1296.415098	4328.686663	0.000000	
0.544132	1.374451	4.076406	3.174443	1.447275	0.437842	-363.313926	759.004547	0.000000	
-1.004660	0.698035	0.792581	6.401199	2.005765	0.127187	-2460.341473	8026.173123	0.000000	
-1.497577	0.824661	0.621960	7.392560	2.009614	-0.033619	-3096.783859	11810.695341	0.000000	
0.815759	1.201689	3.728617	2.527569	1.233254	0.543563	-343.816816	658.988017	0.000000	
6.840034	1.928351	9.753062	-8.968818	-0.382587	1.427890	-0.910173	-931.496395	0.000000	
5.867273	2.226653	9.069510	-7.201958	-0.255707	1.374170	-8.891241	-808.672508	0.000000	
4.757397	1.949434	7.862570	-4.791268	0.298294	1.158118	-72.675405	-624.101117	0.000000	
6.973546	2.147387	9.754375	-8.450669	-0.380302	1.518406	-1.912374	-879.511454	0.000000	
1.297995	1.027121	4.762188	2.054357	1.080528	0.527552	-242.977890	418.474868	0.000000	
5.505955	2.001787	8.895271	-6.470215	-0.222132	1.158953	-10.545375	-740.816437	0.000000	
-3.528981	0.317783	-0.751202	10.620954	2.443745	-0.232468	2988.738409	-14115.684896	0.000000	
3.648602	1.539958	7.174363	-2.897193	0.486612	0.942194	-97.148571	-416.682160	0.000000	
-1.183210	0.784986	0.793764	6.487737	1.854629	0.073373	-2253.649066	8117.080465	0.000000	
1.606125	1.295166	4.588291	1.925691	1.232026	0.563623	-288.943371	403.045945	0.000000	
0.900629	1.070810	3.552844	2.440796	1.294140	0.453417	-379.265191	669.273939	0.000000	
6.259526	2.184289	9.757737	-7.459691	-0.346810	1.321924	-1.238634	-777.862749	0.000000	
5.824429	1.825267	10.107128	-6.986712	-0.255819	1.412048	-7.810368	-702.211365	0.000000	
6.532461	1.791746	8.889426	-7.935782	-0.166405	1.426674	-23.299754	-904.843515	0.000000	
6.973142	2.236365	10.101016	-8.751894	-0.412182	1.519029	1.284568	-879.672238	0.000000	
-1.002204	0.431626	1.311162	6.271871	1.792913	0.163494	-1325.323404	4764.162239	0.000000	
3.074845	1.578836	6.659499	-2.036006	0.640637	0.905813	-122.893015	-319.844596	0.000000	
-12.301007	-1.229350	-12.131108	28.012915	5.264651	-1.680895	376.297596	-2315.678949	0.000000	
4.802385	1.862376	8.554233	-5.523380	-0.007873	1.158606	-31.366653	-658.718092	0.000000	
4.178787	1.809439	7.345618	-3.327058	0.576390	1.032623	-111.173682	-467.564879	0.000000	
7.149053	2.063218	10.097931	-9.441677	-0.656498	1.464195	24.502379	-947.287963	0.000000	
6.392608	2.010387	9.236130	-7.633136	-0.225705	1.302562	-15.184652	-839.468847	0.000000	
2.986518	1.624521	5.274796	-1.778403	0.642876	0.849042	-154.432267	-355.244106	0.000000	
6.177380	1.919543	9.065679	-7.374985	-0.255649	1.391665	-10.820331	-826.199181	0.000000	
1.253806	1.428729	3.032833	2.053896	1.172652	0.488281	-410.635517	649.975372	0.000000	
1.879459	1.215481	3.028785	0.932834	1.229243	0.648573	-441.458069	284.659947	0.000000	
2.980769	1.577794	5.792722	-1.390051	0.614318	0.760983	-135.709176	-256.060499	0.000000	
-0.648271	1.144518	1.486028	5.239772	1.697975	0.253672	-1118.936719	3481.997437	0.000000	
-2.868111	0.322465	-0.409931	10.104707	2.321889	-0.195995	5270.739062	-24606.440756	0.000000	
3.604983	1.625977	7.348843	-2.594842	0.366545	0.978706	-78.189478	-366.322539	0.000000	
1.611750	1.257893	3.722637	0.717814	1.136529	0.578124	-330.382363	173.052005	0.000000	
7.905087	2.380033	11.134849	-10.904984	-0.723171	1.681118	24.325451	-992.162050	0.000000	
6.263235	2.051594	8.892273	-7.029799	-0.223413	1.373975	-15.182819	-804.309426	0.000000	
7.101081	2.371893	10.445530	-9.397606	-0.565846	1.429762	15.239971	-913.230781	0.000000	
4.445012	1.767969	7.689947	-3.929901	0.362290	1.068567	-80.331942	-524.756446	0.000000	
-6.010596	-0.146139	-4.720958	15.269180	3.279492	-0.704617	622.443178	-3236.889030	0.000000	
1.387789	1.608030	3.379534	1.451212	1.169816	0.542609	-369.975119	401.901741	0.000000	
-3.966706	0.225462	-2.651981	12.040895	2.843525	-0.217679	987.514897	-4536.382919	0.000000	
3.562520	1.452173	6.309085	-2.725814	0.518084	0.940148	-114.587152	-445.773313	0.000000	
1.298349	1.250489	4.936539	1.537459	1.259472	0.545894	-270.677090	296.418811	0.000000	
7.197209	2.330442	9.580751	-9.656902	-0.627067	1.552790	22.513682	-1022.409089	0.000000	
7.420332	2.288628	9.233211	-9.786518	-0.566467	1.605740	15.471590	-1074.646123	0.000000	
5.915180	1.874562	7.855836	-6.859260	-0.071625	1.389246	-33.917823	-887.343290	0.000000	
3.878118	1.592185	4.923489	-3.545114	0.334549	1.025848	-112.932355	-738.998412	0.000000	
1.973121	1.661394	3.031929	-0.014078	1.073462	0.773606	-391.354201	-36.201618	0.000000	
3.305435	1.500531	4.580984	-3.115649	0.698258	0.989480	-193.698249	-699.318210	0.000000	
0.016685	0.977080	0.960779	4.075477	1.573950	0.287183	-1639.963917	4183.974121	0.000000	
2.150007	1.131523	2.508054	0.329086	1.076115	0.736209	-477.949703	105.085024	0.000000	
-1.747862	0.430838	-1.972820	7.259775	2.009895	0.084714	968.295103	-3668.457333	0.000000	
3.924746	1.857905	5.618297	-3.889047	0.574085	1.135334	-142.164272	-711.578159	0.000000	
3.387288	1.408314	4.751810	-2.210142	0.612043	0.901041	-169.585953	-482.557779	0.000000	
6.490053	2.017664	7.505440	-8.496516	-0.349270	1.387109	-2.769728	-1147.943998	0.000000	
7.505656	2.200620	9.058156	-9.528486	-0.352960	1.551996	-8.313385	-1066.367413	0.000000	
6.493495	2.012113	8.892654	-8.021206	-0.288449	1.552169	-9.321676	-915.511948	0.000000	
2.499475	1.619832	4.585394	-0.874190	0.737140	0.776393	-192.130214	-211.280286	0.000000	
-1.220831	0.520144	0.794251	6.357283	2.065238	0.180535	-2514.775896	7966.563468	0.000000	
-5.255867	-0.138986	-5.417876	14.752060	3.249090	-0.580871	544.479891	-2725.101500	0.000000	
-1.131688	0.783903	0.622777	6.789190	2.036976	0.252642	-3169.625549	10830.046671	0.000000	
4.543246	1.815079	7.691942	-4.834606	-0.005219	1.246561	-33.249440	-642.581556	0.000000	
5.199546	1.951536	8.552411	-5.221118	0.115276	1.231109	-48.378087	-624.100978	0.000000	
7.812198	2.329756	12.000535	-10.042169	-0.750368	1.648035	25.214479	-848.515664	0.000000	
1.082044	1.380800	4.420932	2.011286	1.381985	0.634885	-327.120729	436.608869	0.000000	
6.173765	1.958596	10.970457	-7.157658	-0.316795	1.414313	-3.486116	-663.278500	0.000000	
2.943071	1.221245	6.312665	-1.046120	0.856728	0.905577	-162.661898	-177.385170	0.000000	
2.851223	1.528149	6.314494	-0.613998	0.737530	0.870448	-142.922057	-111.627789	0.000000	
1.484426	1.253516	4.418236	1.063237	1.106290	0.723306	-270.030364	223.915769	0.000000	
-4.418007	0.306968	-2.131187	12.903671	2.665033	-0.413033	1133.390402	-6047.418614	0.000000	
3.649727	2.022528	8.217269	-2.765320	0.304298	1.070731	-62.739709	-351.148327	0.000000	
-4.852148	-0.092848	-2.301708	12.987732	2.966525	-0.342280	1169.768378	-5645.726022	0.000000	
6.439220	1.961470	10.449170	-7.244089	-0.285841	1.431129	-8.008487	-704.614635	0.000000	
5.119146	1.729966	9.246475	-5.695406	0.051283	1.375144	-37.397184	-627.264690	0.000000	
7.153073	2.277223	12.006368	-9.008184	-0.747770	1.684361	28.065705	-761.738650	0.000000	
7.154308	2.235485	11.659827	-9.267664	-0.506660	1.683477	8.238579	-806.407437	0.000000	
4.139634	1.897332	7.347934	-3.412910	0.484681	1.140034	-98.359081	-479.772827	0.000000	
2.280933	1.391420	5.453007	0.117026	0.921372	0.868715	-193.222942	6.331012	0.000000	
-4.147733	0.223405	-0.747295	11.395761	2.687673	-0.285750	3284.327213	-15233.389057	0.000000	
-1.090251	0.915212	2.181103	6.316892	1.852235	0.255904	-821.960113	2871.834930	0.000000	
-0.646095	0.961938	2.006072	6.274169	1.883222	0.363351	-921.477639	3099.871838	0.000000	
3.519807	1.404123	7.348983	-2.552432	0.366360	1.014184	-77.512440	-358.850759	0.000000	
6.310536	2.050447	9.932069	-7.287635	-0.195479	1.483739	-16.755516	-746.144124	0.000000	
7.947341	2.598591	11.309011	-10.429815	-0.781663	1.700214	28.901213	-935.962522	0.000000	
4.447102	1.990138	7.864881	-4.360124	0.269241	1.122532	-66.746681	-569.389516	0.000000	
4.666035	1.724185	8.207777	-4.101649	0.240591	1.105417	-61.997103	-512.326517	0.000000	
2.720176	1.351706	6.141321	-0.744163	0.767059	0.851667	-150.540827	-134.335455	0.000000	
2.275846	1.482011	5.278549	-0.184643	0.890434	0.742698	-193.667803	-51.545872	0.000000	
2.146460	1.390139	5.107131	0.504492	1.013974	0.814537	-222.909909	82.696497	0.000000	
0.771859	1.157982	2.516500	2.957566	1.236180	0.505187	-509.227087	1148.638340	0.000000	
-0.510001	0.744275	2.870120	5.196614	1.817397	0.417777	-624.030013	1795.228026	0.000000	
0.421919	0.979101	2.345630	3.171818	1.447959	0.522619	-628.180648	1327.991061	0.000000	
3.074103	1.578394	6.139929	-1.648493	0.703354	0.887116	-143.433669	-283.723954	0.000000	
7.777055	2.333784	10.271207	-10.259248	-0.690013	1.751241	23.908168	-1012.397323	0.000000	
6.800017	1.971234	9.408705	-8.667144	-0.411714	1.516948	2.419643	-933.751663	0.000000	
5.778811	2.267484	9.244085	-6.555395	-0.041634	1.411286	-31.359089	-723.720486	0.000000	
6.047692	2.005118	9.760918	-7.288109	-0.226330	1.483043	-12.363903	-759.001030	0.000000	
-5.258127	0.123762	-3.858044	14.538544	3.216453	-0.541191	756.442598	-3767.385040	0.000000	
-3.030902	0.147661	-2.137807	10.188527	2.564343	-0.003077	1119.184486	-4762.815310	0.000000	
-0.825544	0.923295	0.792917	5.539961	1.850937	0.180373	-2276.707977	6920.659923	0.000000	
4.320020	1.413976	6.305429	-3.457818	0.334632	1.136755	-92.299347	-561.782421	0.000000	
5.608654	1.826784	9.070707	-7.074178	-0.135149	1.445305	-20.581341	-792.005365	0.000000	
6.753413	2.187976	10.276076	-8.277540	-0.592387	1.537408	19.985312	-818.275007	0.000000	
6.670346	1.968610	9.757041	-8.451456	-0.381457	1.589585	-0.050198	-878.323854	0.000000	
6.797819	1.967488	10.101255	-8.235199	-0.561587	1.518855	17.049107	-827.006392	0.000000	
3.387199	1.801761	6.659787	-2.207509	0.640196	1.031600	-125.453118	-347.461043	0.000000	
3.878198	1.320058	7.173985	-3.155958	0.303870	1.120717	-73.476464	-451.054171	0.000000	
1.654846	1.385497	4.762698	1.322734	1.107949	0.653046	-252.913365	260.592804	0.000000	
0.146717	1.147090	4.078401	4.207931	1.602099	0.420504	-395.631095	1015.165975	0.000000	
0.419763	1.198984	2.692949	3.301967	1.508731	0.523968	-569.785653	1200.358919	0.000000	
-0.159378	1.145568	2.869195	4.724214	1.574262	0.417893	-546.347748	1623.314368	0.000000	
3.345675	1.404433	6.658168	-2.381136	0.639341	1.030798	-125.005009	-370.274300	0.000000	
4.667438	1.902071	7.862882	-4.144728	0.361501	1.140781	-80.069374	-541.511547	0.000000	
7.199537	2.281002	10.967261	-9.267808	-0.657219	1.681769	22.305285	-857.525542	0.000000	
6.886526	2.191023	9.755587	-8.493595	-0.471565	1.536186	7.943183	-884.053336	0.000000	
6.001676	2.000605	10.454048	-6.640971	-0.163710	1.503277	-17.339456	-646.803949	0.000000	
1.441682	1.120206	3.552416	1.579450	1.139428	0.721567	-344.305370	426.106867	0.000000	
-1.002145	0.785019	1.659847	6.186737	1.912983	0.218640	-1119.417073	3699.945396	0.000000	
-4.407709	0.306787	-1.954893	12.774127	2.905326	-0.179589	1358.885498	-6526.444583	0.000000	
-1.265864	0.782971	1.142505	6.488151	1.732588	0.199410	-1455.101780	5639.615532	0.000000	
2.366479	1.615543	4.759912	-0.141326	0.800314	0.795418	-196.819148	-49.547384	0.000000	
6.312569	2.097162	9.412949	-7.718731	-0.408719	1.481917	5.005673	-833.325494	0.000000	
6.090768	2.182466	9.241877	-7.158448	-0.346143	1.464191	-0.311436	-788.629250	0.000000	
2.855294	1.528968	6.835025	-1.087919	0.795120	0.960852	-140.556669	-172.532371	0.000000	
5.118117	1.906691	8.727806	-5.479559	-0.068270	1.356346	-25.868211	-640.898126	0.000000	
3.429745	1.403395	7.176061	-2.251252	0.609725	0.978441	-112.570593	-325.502754	0.000000	
2.993455	1.447016	5.449011	-1.778928	0.763145	0.992640	-171.663176	-342.180786	0.000000	
0.196088	1.197732	3.039776	3.129892	1.295702	0.434658	-430.655850	1006.725033	0.000000	
0.417628	1.418941	3.213385	3.303009	1.508292	0.525533	-477.457399	1002.302141	0.000000	
-0.242745	1.107053	2.004042	3.688619	1.449111	0.414554	-717.085061	1808.781314	0.000000	
1.303503	1.470783	4.073668	1.839701	0.958570	0.651639	-254.049864	430.537412	0.000000	
5.692945	1.912559	9.762672	-6.685258	-0.133661	1.429612	-19.815167	-696.582269	0.000000	
5.732662	2.046677	8.722802	-6.383895	-0.130919	1.320186	-22.653334	-745.840808	0.000000	
6.533017	1.744320	9.755584	-7.719481	-0.257104	1.482523	-12.007056	-802.133607	0.000000	
4.854535	1.554490	6.822501	-5.137454	-0.065465	1.243959	-31.115899	-766.613148	0.000000	
3.827845	1.584559	7.347494	-2.939851	0.486401	1.032329	-96.218010	-413.029309	0.000000	
-4.231337	-0.087232	-2.478672	12.384857	2.814107	-0.253442	1038.758142	-4999.357006	0.000000	
-0.561698	0.920645	2.349840	5.541827	1.638398	0.255688	-684.613623	2335.589190	0.000000	
-4.101116	0.356063	-1.958017	11.998675	2.781969	-0.233952	1302.500964	-6118.582272	0.000000	
1.925487	1.525583	4.069833	0.244871	1.164559	0.740363	-313.477084	38.322123	0.000000	
5.424349	2.000111	7.685995	-5.695380	-0.097479	1.282324	-27.703009	-756.421349	0.000000	
5.427065	1.777368	9.244118	-6.039895	0.050614	1.375085	-39.203055	-664.977892	0.000000	
6.843816	2.233687	10.276265	-8.493084	-0.472336	1.591200	7.809060	-839.484541	0.000000	
4.008130	1.720763	6.828315	-3.370801	0.454837	1.102622	-100.332763	-508.602934	0.000000	
6.312291	2.097069	9.586052	-7.761755	-0.378803	1.482318	1.781907	-822.779848	0.000000	
2.282863	1.349798	5.106519	-0.314474	0.889486	0.867366	-200.057122	-77.226735	0.000000	
0.289095	0.931239	2.693002	3.732091	1.600972	0.541916	-601.303991	1365.632609	0.000000	
-2.017662	0.554480	-0.065639	8.080548	2.041501	0.090091	29376.380519	-122632.444630	0.000000	
-4.142823	0.134394	-2.131568	12.084296	2.661324	-0.216857	1138.691044	-5666.479853	0.000000	
-0.511101	1.056992	2.178456	4.680034	1.513368	0.362015	-682.320898	2120.289117	0.000000	
3.069122	1.619452	7.005030	-1.345737	0.613480	0.835691	-112.947396	-205.894297	0.000000	
2.676771	1.441219	6.315231	-1.217785	0.583187	0.851514	-116.915740	-206.450564	0.000000	
5.825802	2.004011	8.723100	-6.771751	-0.253759	1.409243	-9.169525	-790.003860	0.000000	
5.162431	1.953687	9.073781	-6.126074	0.079927	1.356788	-41.518373	-688.033810	0.000000	
4.460655	1.596194	6.999794	-5.051727	0.175410	1.298251	-61.602270	-735.303965	0.000000	
2.714332	1.616867	5.968076	-0.657005	0.556273	0.744021	-119.514153	-126.100313	0.000000	
-0.643260	0.832663	2.351791	5.368622	1.909094	0.381023	-797.202123	2262.101547	0.000000	
-2.591567	0.417751	-1.793915	9.328135	2.289214	-0.002695	1194.255231	-5187.621932	0.000000	
-0.828508	0.785898	2.004121	6.057885	1.882528	0.183593	-916.920456	2999.899399	0.000000	
1.569359	1.076266	4.069435	1.536643	1.199990	0.651187	-317.304166	361.953937	0.000000	
4.889151	1.640692	8.032597	-4.920983	0.146892	1.122033	-53.225720	-624.899872	0.000000	
5.163153	2.087380	7.862638	-5.738836	0.203610	1.354628	-63.528054	-745.595380	0.000000	
5.204716	1.998463	8.380487	-5.910657	-0.069448	1.301547	-27.346913	-719.480850	0.000000	
5.639688	1.734430	9.066772	-5.910391	-0.098608	1.213489	-24.812121	-663.419879	0.000000	
-0.331552	0.881813	1.830631	4.679294	1.604680	0.414895	-867.197346	2528.269283	0.000000	
4.847249	1.906080	8.035228	-5.006684	0.267050	1.194108	-67.869755	-637.214354	0.000000	
1.126839	1.335728	4.247539	2.269902	1.292589	0.652513	-319.987387	515.946817	0.000000	
1.263276	0.852715	4.417371	1.536046	1.168538	0.669341	-281.365706	336.084850	0.000000	
1.611946	1.296249	3.897112	1.839169	1.080588	0.651309	-301.274453	452.455821	0.000000	
-3.431629	0.408730	-1.614625	10.490999	2.624844	-0.055105	1505.629852	-6484.090715	0.000000	
3.028206	1.353746	7.004594	-1.346474	0.582984	0.871058	-108.272852	-203.883930	0.000000	
3.650744	1.670821	7.176079	-2.637920	0.366463	1.014181	-80.399315	-381.475719	0.000000	
3.208382	1.623867	5.447130	-1.519345	0.644213	0.921526	-152.102142	-296.465461	0.000000	
5.954302	2.090825	9.760915	-6.770395	-0.344898	1.393920	0.320156	-706.454441	0.000000	
0.726728	1.200430	4.075531	2.656764	1.445036	0.544679	-365.356173	634.542376	0.000000	
4.355150	1.808439	7.864077	-3.283005	0.364780	1.069624	-78.246072	-431.184201	0.000000	
-2.948639	0.500447	-0.406168	9.673768	2.470266	-0.034816	5673.773131	-23748.865097	0.000000	
1.966764	1.125646	4.932172	0.245003	0.831600	0.669827	-191.768615	36.056326	0.000000	
0.984487	1.420956	4.419724	2.959810	1.386632	0.474591	-327.022752	650.830027	0.000000	
-0.641654	0.790623	1.658889	5.109591	1.696844	0.360913	-1001.964993	3052.574809	0.000000	
3.733350	1.584088	7.173123	-2.724535	0.487850	0.888747	-98.000689	-393.029083	0.000000	
4.316541	1.900335	7.865816	-4.274125	0.178443	1.140209	-54.264105	-557.748012	0.000000	
4.140033	1.458498	6.305605	-3.716333	0.182187	1.028785	-66.519197	-603.160546	0.000000	
5.643818	1.781160	8.375236	-6.169595	-0.038937	1.265468	-33.948215	-749.392731	0.000000	
3.742247	1.675416	6.309963	-3.155948	0.395276	1.029624	-96.706895	-515.863855	0.000000	
2.984813	1.707872	5.622060	-0.829396	0.676914	0.886801	-150.979298	-165.382756	0.000000	
-1.487925	0.646475	1.489638	7.091000	2.006692	0.182853	-1291.843377	4735.053197	0.000000	
-0.032493	1.193690	2.000706	4.594253	1.666092	0.272645	-832.628065	2262.026099	0.000000	
-1.666739	0.689621	0.624756	7.650536	2.130673	0.109767	-3261.506251	12182.883771	0.000000	
2.589573	1.086020	5.967770	-0.788057	0.615494	0.832642	-128.270811	-143.075670	0.000000	
4.711700	1.861475	8.034853	-5.006910	0.236806	1.104339	-63.162323	-636.960647	0.000000	
5.738608	1.869851	8.723415	-6.470650	-0.101488	1.427359	-26.063884	-754.596109	0.000000	
5.559716	1.781578	8.550040	-6.514443	-0.041162	1.337136	-32.458140	-774.423803	0.000000	
3.914352	1.896630	6.655338	-3.111765	0.395816	0.995115	-93.261325	-484.361868	0.000000	
3.073539	1.445634	6.312124	-1.648831	0.763797	0.869476	-149.112960	-274.879489	0.000000	
0.012129	1.017642	2.865023	3.990995	1.511608	0.273701	-528.632669	1372.264321	0.000000	
1.034818	1.202515	4.592564	2.269553	1.383190	0.563593	-314.610416	478.675747	0.000000	
4.142506	1.899375	6.828856	-3.757899	0.271755	1.156147	-74.618912	-566.715744	0.000000	
3.645378	1.716426	6.655172	-2.509139	0.519215	0.887899	-109.537664	-392.304589	0.000000	
4.892460	1.863470	6.995751	-4.878065	0.147676	1.173691	-61.136147	-713.048284	0.000000	
5.908321	1.960911	9.413070	-7.116222	-0.224905	1.303079	-12.112374	-768.494951	0.000000	
4.803218	1.815971	7.688965	-4.489978	0.330013	1.193701	-78.758236	-598.015404	0.000000	
4.621889	1.726032	7.688265	-4.274623	0.270513	1.068185	-69.702901	-569.402577	0.000000	
4.009014	1.765847	7.348104	-3.887435	0.331043	1.121193	-76.450937	-543.335631	0.000000	
2.058472	1.213666	4.933365	0.417578	0.983398	0.777849	-223.535223	70.027446	0.000000	
2.316688	1.394885	5.103381	-0.271189	0.860448	0.652489	-194.861569	-69.287866	0.000000	
2.319986	1.569324	5.279121	0.160331	1.043176	0.779198	-223.049175	12.878493	0.000000	
2.191019	1.304817	4.759564	0.029836	0.951926	0.777247	-226.619252	-9.926064	0.000000	
0.411223	1.241094	3.210555	3.647443	1.480196	0.382252	-469.014627	1113.576071	0.000000	
-4.325735	0.401223	-2.304018	11.868741	2.902558	-0.360267	1153.650935	-5142.365277	0.000000	
-4.376169	0.352843	-2.651476	12.989298	2.877913	-0.467600	992.007763	-4892.240327	0.000000	
8.259390	2.516015	12.172246	-11.894708	-0.939475	1.754480	38.322233	-989.609671	0.000000	
4.272810	1.681117	6.998740	-4.232531	0.270195	1.084186	-73.648580	-619.046390	0.000000	
-9.781434	-0.804470	-9.549678	23.190836	4.611782	-1.409112	424.667702	-2433.981135	0.000000	
0.150761	0.840723	3.384398	3.775549	1.479774	0.417837	-440.520842	1100.823875	0.000000	
1.744487	1.432898	3.896579	1.149695	1.168617	0.651016	-325.815523	273.606727	0.000000	
-1.795892	0.647320	0.452703	7.132772	2.128063	0.126600	-4478.989389	15674.904286	0.000000	
-7.074158	-0.157048	-6.272403	17.508231	3.651392	-0.867680	518.068098	-2793.529283	0.000000	
6.086869	2.138208	9.586848	-7.158554	-0.194881	1.393447	-16.083835	-760.032705	0.000000	
6.399248	2.010420	9.930582	-8.192746	-0.410844	1.446777	4.427934	-837.173451	0.000000	
-4.288172	0.266391	-1.787333	12.127973	2.601477	-0.484682	1320.104783	-6777.964541	0.000000	
-0.203492	1.058506	3.215022	4.292720	1.693009	0.400338	-523.829443	1315.921024	0.000000	
5.689643	1.826733	8.375374	-6.600081	-0.343288	1.282727	2.084180	-801.084714	0.000000	
2.764439	1.398153	5.621553	-0.916923	0.797151	0.832478	-170.181808	-177.876165	0.000000	
-11.146750	-1.127064	-10.406192	25.170504	5.041176	-1.463915	423.551020	-2425.690425	0.000000	
5.154308	1.952538	8.205808	-5.350600	-0.005912	1.176251	-35.310343	-666.213952	0.000000	
5.462507	2.088855	9.242987	-6.254682	0.110916	1.214196	-45.947022	-690.187792	0.000000	
-6.186219	-0.281544	-4.720092	15.613744	3.159458	-0.704729	595.039562	-3312.091438	0.000000	
-5.787407	0.208633	-4.373089	15.054983	3.369061	-0.577815	695.365172	-3440.778420	0.000000	
-2.329500	0.508746	-0.064610	8.252218	2.253508	0.000630	32854.834986	-127282.475367	0.000000	
7.104318	2.461269	10.620037	-9.742166	-0.537583	1.501659	12.298164	-931.154582	0.000000	
2.714733	1.172244	5.446552	0.375395	0.984810	0.743604	-209.567191	56.034481	0.000000	
7.459564	2.196391	11.136225	-9.828027	-0.749395	1.574086	28.921906	-894.406756	0.000000	
3.653597	1.627335	7.349683	-2.896679	0.425446	1.068080	-86.565810	-407.359060	0.000000	
-1.002399	0.828886	1.660085	6.230074	1.852675	0.218684	-1082.919898	3724.035708	0.000000	
1.566944	1.121727	4.588214	1.019945	1.106743	0.598128	-261.163700	207.766489	0.000000	
-4.549233	0.083588	-1.438287	13.075451	2.967217	-0.375488	1884.765311	-9088.540756	0.000000	
2.587142	1.307140	6.141685	-0.787540	0.766647	0.815634	-149.249503	-140.983113	0.000000	
7.152516	2.370650	10.967029	-9.526304	-0.658206	1.609953	22.636320	-881.572607	0.000000	
6.971988	1.928542	9.752031	-8.968348	-0.593946	1.427755	20.003956	-931.547673	0.000000	
4.131197	1.809252	8.037442	-3.671233	0.423232	0.962068	-82.284381	-470.209381	0.000000	
3.247537	1.624530	5.272158	-1.433236	0.645310	0.813739	-157.748679	-289.951636	0.000000	
1.833427	0.901924	4.931721	0.718501	0.833510	0.634040	-190.656490	134.615612	0.000000	
-1.891370	0.865124	0.626213	7.737128	2.070297	0.020322	-3137.377726	12277.090212	0.000000	
0.454315	1.153766	3.036119	3.603877	1.540921	0.345931	-516.713038	1164.866307	0.000000	
1.563756	1.210070	3.895237	1.407703	1.079073	0.525309	-300.336116	343.147746	0.000000	
-0.782720	0.785039	2.523882	5.929256	1.730196	0.238311	-668.916235	2330.995627	0.000000	
6.356203	1.878050	8.372014	-7.418795	-0.133940	1.425997	-27.387598	-899.541554	0.000000	
6.355799	1.923233	8.718216	-7.892315	-0.347995	1.408271	-1.776123	-918.457524	0.000000	
0.190885	1.063653	3.037840	3.732517	1.661749	0.345871	-551.329507	1208.216302	0.000000	
-0.916105	0.920728	1.139441	5.799076	1.700474	0.145395	-1448.052493	5043.254118	0.000000	
3.471487	1.582806	6.309998	-2.337551	0.549949	0.904873	-118.811118	-385.339107	0.000000	
3.999824	1.454965	6.304928	-2.725585	0.640470	0.904757	-137.964867	-446.055212	0.000000	
-0.160587	1.150150	2.002300	4.205942	1.603273	0.325782	-797.003134	2067.512511	0.000000	
6.485071	2.011242	10.275552	-8.364945	-0.350998	1.411724	-2.039929	-825.857849	0.000000	
7.321626	2.148389	10.616340	-8.751004	-0.653352	1.466368	22.059026	-836.463071	0.000000	
-2.998529	0.765576	-0.232662	9.717514	2.591533	-0.123440	10414.730126	-41582.929641	0.000000	
-2.139853	0.247894	-1.103307	7.647636	2.009375	0.194100	1711.619316	-6919.762076	0.000000	
-1.672908	0.778583	0.103901	7.823040	1.981212	-0.034647	-18165.620170	74871.819121	0.000000	
0.200228	0.977820	2.693154	3.085594	1.477070	0.487402	-553.412573	1124.533283	0.000000	
1.968736	1.214601	4.240647	0.460132	0.923703	0.704460	-244.657227	91.621794	0.000000	
5.018877	1.553888	7.857156	-4.878481	0.359563	1.068106	-82.390113	-632.805771	0.000000	
7.200087	2.241666	10.446851	-10.044473	-0.629784	1.625987	20.826511	-974.335721	0.000000	
-0.736353	0.831593	1.485276	5.971563	1.822012	0.254000	-1199.686713	3988.279739	0.000000	
0.195984	1.151728	2.866707	3.689829	1.479754	0.452847	-520.809176	1263.776697	0.000000	
0.461096	1.111910	2.864235	3.043196	1.507870	0.452358	-536.267825	1039.886830	0.000000	
7.453563	2.461267	11.136280	-9.611870	-0.657343	1.485220	20.686032	-876.326654	0.000000	
7.108036	2.018549	10.099020	-9.312924	-0.384113	1.536181	-2.243887	-934.188725	0.000000	
6.528103	1.832563	10.101013	-7.805056	-0.348144	1.393718	-2.583095	-783.692519	0.000000	
4.843701	1.905654	7.861131	-4.748200	0.298889	1.122325	-73.380235	-618.424135	0.000000	
2.053824	1.127566	4.238451	0.373577	1.014618	0.632739	-267.360004	72.400573	0.000000	
-1.098385	0.782316	1.139062	7.091555	1.948107	0.057037	-1656.955016	6186.434399	0.000000	
-1.838009	0.603790	0.106855	7.089166	2.158202	0.143586	-19233.193678	66026.108162	0.000000	
-7.957760	-0.476249	-6.787176	19.100856	3.929059	-0.957699	512.321527	-2819.006684	0.000000	
6.309111	2.230760	8.893234	-7.546574	-0.256008	1.409558	-11.805547	-863.461683	0.000000	
5.114181	1.865538	8.899090	-6.040349	0.111031	1.248838	-45.508848	-691.335317	0.000000	
-1.716063	0.869133	-0.414722	7.650031	2.192461	-0.035719	5053.625535	-18329.398281	0.000000	
-2.641197	0.727925	-0.754430	8.769101	2.407015	-0.071881	2993.289413	-11570.153726	0.000000	
2.407712	1.306493	5.103188	-0.142286	1.042468	0.724404	-231.537621	-43.059232	0.000000	
7.281003	2.237441	11.310755	-9.267840	-0.505484	1.557341	7.784708	-831.294876	0.000000	
4.133504	1.899218	6.999462	-3.585487	0.363874	0.977673	-85.908096	-528.288945	0.000000	
6.043385	1.918329	8.546719	-6.987464	-0.283898	1.336945	-7.244569	-830.967409	0.000000	
5.333680	2.044087	8.205704	-5.824665	0.143403	1.247863	-54.733759	-724.620998	0.000000	
1.965524	1.434896	4.414377	0.547215	0.863581	0.669393	-221.399298	104.911053	0.000000	
-1.311860	0.869660	1.489504	6.790048	1.975502	0.200894	-1277.652179	4525.025028	0.000000	
-0.739564	0.744260	1.483576	5.798884	1.791378	0.164086	-1180.289933	3879.758655	0.000000	
-6.235778	0.112909	-4.198681	16.261470	3.464405	-0.719876	740.998980	-3872.299053	0.000000	
6.972994	2.147704	9.754131	-8.536805	-0.441107	1.500340	4.324505	-888.365941	0.000000	
6.971415	2.193164	10.446278	-9.182606	-0.595639	1.465415	18.787322	-891.624021	0.000000	
-4.767890	0.175169	-3.167951	12.944789	2.937380	-0.433524	841.984488	-4083.880874	0.000000	
-3.488549	0.274106	-1.445478	11.008182	2.537277	-0.323241	1619.118961	-7605.772185	0.000000	
2.006429	1.432273	5.625794	0.720397	1.044984	0.672666	-206.547169	112.954983	0.000000	
2.807612	1.266735	5.273585	-1.003530	0.646169	0.777493	-153.188495	-204.584005	0.000000	
8.216265	2.294276	11.652160	-11.421923	-0.695066	1.753615	19.300142	-992.101265	0.000000	
5.112504	1.908747	8.379541	-5.609309	-0.007475	1.212139	-34.128238	-682.998883	0.000000	
3.430397	1.450884	5.963936	-2.338483	0.701204	0.939815	-150.634543	-406.566642	0.000000	
3.072434	1.712540	5.447386	-1.648588	0.643629	0.831861	-150.587405	-321.090482	0.000000	
-1.047144	0.785684	1.486583	6.100318	1.912763	0.182282	-1247.948765	4073.116820	0.000000	
5.868537	1.829112	8.028391	-6.729762	-0.192074	1.335811	-17.876870	-851.841474	0.000000	
3.160406	1.621972	7.004989	-1.819996	0.671886	0.889094	-122.017037	-273.618795	0.000000	
6.264051	1.918472	9.757443	-7.417263	-0.377140	1.393196	1.843658	-772.009245	0.000000	
5.726850	2.133678	10.280256	-6.770295	-0.224355	1.251871	-10.220080	-671.030833	0.000000	
-3.125207	0.633649	-1.270144	9.802514	2.531674	-0.072431	1854.374447	-7690.461527	0.000000	
-2.471992	0.639779	-1.797158	9.501248	2.321555	-0.234965	1213.827708	-5267.657680	0.000000	
4.666760	1.684245	7.860718	-4.792222	0.358938	1.068144	-79.760307	-622.476381	0.000000	
-0.111885	0.797807	2.174026	3.817153	1.571091	0.379019	-720.564008	1734.395945	0.000000	
8.567432	2.473295	11.650181	-11.636212	-0.967275	1.753622	40.977503	-1011.525431	0.000000	
4.931310	1.774673	8.205489	-5.265204	0.054735	1.086404	-41.177882	-654.616395	0.000000	
1.562228	1.077826	4.240259	1.278011	1.229618	0.490135	-311.445834	286.324344	0.000000	
-0.030881	1.191852	2.867273	4.551800	1.695152	0.346350	-591.390040	1563.365759	0.000000	
4.050584	1.676973	7.346590	-3.715098	0.271674	1.067450	-68.702827	-519.310650	0.000000	
1.964940	1.389419	5.279953	0.461413	0.953172	0.689308	-202.194905	71.811921	0.000000	
7.856851	2.509569	11.135221	-10.300817	-0.871632	1.627976	37.900174	-938.524342	0.000000	
3.864716	1.851768	6.307533	-2.724256	0.428475	0.869205	-103.096625	-449.190426	0.000000	
-2.028695	0.683242	2.010605	8.211566	2.252648	-0.029832	-1064.557332	4064.247752	0.000000	
-2.018405	0.469432	-0.932710	7.863819	2.162534	0.016159	2196.341356	-8403.723414	0.000000	
-1.271364	0.604515	1.140144	7.047824	1.917036	0.092402	-1619.619432	6150.958230	0.000000	
-2.154091	0.731831	-0.411210	8.166509	2.253880	0.000180	5186.384833	-19760.663762	0.000000	
7.328674	2.018722	10.270668	-9.398161	-0.777307	1.554152	34.858275	-926.889736	0.000000	
7.100807	2.501533	10.620066	-8.750703	-0.351607	1.484989	-5.195016	-838.007200	0.000000	
-2.820252	0.504087	-1.274569	9.457846	2.319662	-0.162562	1695.018062	-7399.047813	0.000000	
0.237037	1.106612	3.558071	3.690198	1.539969	0.418689	-437.335512	1018.870989	0.000000	
3.603812	1.670553	7.348778	-2.594916	0.487606	0.960988	-94.654808	-366.676111	0.000000	
6.572766	2.057030	9.928562	-8.451196	-0.381031	1.392998	0.445660	-863.637949	0.000000	
6.346657	2.228337	9.757233	-7.287119	-0.285302	1.322289	-8.043602	-760.469573	0.000000	
7.635533	2.331330	10.962302	-10.086208	-0.810418	1.573677	34.059213	-932.826541	0.000000	
3.737366	1.849432	7.002814	-2.767015	0.487323	0.996186	-100.321933	-410.759928	0.000000	
-2.241525	0.639366	0.455446	8.511796	2.254255	0.056127	-4674.202718	18609.361582	0.000000	
-0.512188	0.660286	1.136552	5.065843	1.667583	0.269922	-1442.731833	4423.793831	0.000000	
1.790738	1.345030	4.242514	0.805101	1.015547	0.687060	-263.844269	171.168546	0.000000	
3.957662	1.763897	7.519838	-3.370284	0.515094	0.996874	-98.815146	-462.159732	0.000000	
2.676038	1.309386	5.102034	-0.702014	0.737943	0.795369	-174.853683	-152.807363	0.000000	
4.801594	1.771956	7.168689	-4.274727	0.271126	1.138804	-76.189851	-610.987000	0.000000	
1.660786	1.214191	3.723337	0.459405	0.923399	0.667180	-273.817506	104.275408	0.000000	
-1.755309	0.865599	0.972806	7.607971	2.220604	0.128764	-2182.226577	7769.909885	0.000000	
2.270242	1.570640	5.277475	-0.098285	0.951754	0.635489	-205.266563	-36.134894	0.000000	
4.575200	1.724600	8.034360	-4.102036	0.331523	1.033381	-74.001798	-523.418283	0.000000	
7.059822	2.280230	10.792968	-8.923488	-0.473758	1.520564	6.406336	-839.454042	0.000000	
5.552418	2.047337	8.895814	-6.685852	-0.071959	1.212746	-27.719152	-765.298735	0.000000	
7.767559	2.419603	11.308363	-10.042574	-0.719546	1.610696	24.301951	-900.884255	0.000000	
2.585029	1.528089	6.488760	-0.958953	0.674910	0.798604	-127.152487	-161.813023	0.000000	
-1.359690	0.647895	1.487328	6.918944	1.825185	0.093002	-1176.651405	4626.675641	0.000000	
1.120682	1.335706	4.418905	2.313129	1.293165	0.527558	-307.660884	505.689086	0.000000	
4.177450	1.764352	8.383875	-3.757011	0.271235	1.016351	-61.096770	-460.744117	0.000000	
3.069467	1.752577	6.659670	-1.216584	0.795733	0.853309	-146.133440	-198.257848	0.000000	
4.712263	1.772501	8.207587	-5.092860	-0.005689	1.104270	-32.308140	-633.436371	0.000000	
4.491345	1.991104	8.210738	-4.747774	0.146367	1.122869	-49.305561	-592.658733	0.000000	
-1.711072	0.776960	1.145150	7.564983	2.099416	0.128899	-1750.261036	6567.225309	0.000000	
-1.441788	0.428235	1.141692	6.616119	1.853839	0.163181	-1553.695144	5773.153189	0.000000	
3.334576	1.801091	6.138317	-1.604697	0.825413	0.851977	-165.736699	-278.699002	0.000000	
5.863445	1.782485	8.892783	-6.556652	-0.252195	1.266242	-9.423061	-749.359674	0.000000	
5.997573	2.225444	10.626691	-7.545393	-0.318694	1.395468	-2.464410	-722.604693	0.000000	
7.369816	2.329959	11.137047	-10.043513	-0.629478	1.538310	18.604447	-914.362338	0.000000	
4.405281	1.503259	8.035960	-4.361404	0.269023	1.122179	-65.023331	-554.044717	0.000000	
-1.938131	0.865126	1.145150	7.478851	2.038578	-0.032512	-1686.009597	6487.691100	0.000000	
3.073482	1.490583	5.619649	-1.476807	0.765194	0.850155	-167.638181	-278.488774	0.000000	
4.095789	1.677835	7.519592	-4.016519	0.149249	1.085377	-51.196830	-547.472836	0.000000	
3.597637	1.582817	7.173205	-2.466187	0.609918	0.817379	-113.955320	-356.999056	0.000000	
5.860411	1.961456	8.546383	-6.772116	-0.192099	1.193877	-16.784837	-806.085705	0.000000	
5.377092	1.910588	8.377611	-5.738341	-0.037626	1.230079	-32.308938	-698.570397	0.000000	
-6.051471	-0.058939	-4.545798	15.355678	3.339725	-0.614376	659.203464	-3379.533976	0.000000	
-2.108372	0.686226	-0.411017	8.511258	2.315817	0.054298	5345.755842	-20614.947903	0.000000	
3.338108	1.756539	6.831590	-2.078024	0.519971	0.924418	-104.316407	-319.418045	0.000000	
3.872251	1.499322	6.134131	-2.984157	0.487541	0.975563	-115.686801	-501.011052	0.000000	
5.993227	1.962310	9.065090	-7.030395	-0.102704	1.230874	-26.553062	-788.504632	0.000000	
7.553535	2.331706	12.003591	-10.775603	-0.603443	1.718947	14.176865	-909.410229	0.000000	
-1.272677	0.915614	0.795162	6.875911	1.946840	0.073994	-2359.340709	8581.764445	0.000000	
-2.775117	0.678582	-0.580345	9.674391	2.410542	-0.070733	3884.542653	-16605.261450	0.000000	
3.120167	1.447716	5.619564	-1.821603	0.642646	0.885478	-146.299425	-339.421307	0.000000	
1.526521	1.036038	3.549652	0.889284	1.227802	0.613418	-370.810468	233.337704	0.000000	
6.311235	2.101664	8.026687	-7.849644	-0.135579	1.389220	-28.013505	-993.447188	0.000000	
7.820817	2.603573	9.752248	-10.991681	-0.783355	1.713784	34.541893	-1142.884195	0.000000	
-5.966478	0.207785	-5.757781	15.872515	3.585435	-0.669761	563.781485	-2755.494707	0.000000	
-1.440088	0.386679	-1.455737	7.389574	2.101523	0.122153	1387.321621	-5062.083743	0.000000	
-1.837505	0.959215	-1.449410	7.433784	2.191207	0.140797	1439.872859	-5092.514543	0.000000	
-1.866666	0.654497	-3.352351	6.957359	2.038546	0.314302	576.064593	-2065.225787	0.000000	
6.802937	1.883906	8.023620	-8.237502	-0.318001	1.531970	-8.726771	-1040.643395	0.000000	
8.121828	2.732266	12.346890	-11.031745	-0.966189	1.702207	40.557801	-906.712928	0.000000	
-4.063994	-0.136637	0.634990	12.344328	2.781885	-0.299813	-4022.677197	19451.452363	0.000000	
0.590429	1.421612	3.210699	2.872406	1.265262	0.435391	-405.182151	868.979525	0.000000	
0.773920	1.158665	3.209637	2.483728	1.324028	0.560203	-426.832883	752.766787	0.000000	
3.299168	1.049138	6.136271	-1.778915	0.582236	0.939958	-125.838619	-300.307539	0.000000	
6.660698	1.964569	11.486466	-8.234521	-0.381366	1.468498	-0.121929	-727.298208	0.000000	
7.378585	2.731175	10.448974	-10.603491	-0.571709	1.715931	14.305606	-1030.266328	0.000000	
-1.793621	0.827585	-2.836025	7.906735	2.104055	0.083968	705.629909	-2772.403298	0.000000	
-1.389062	0.964121	-1.623947	6.744425	2.098102	0.301153	1243.196652	-4120.608491	0.000000	
0.244808	1.022867	1.134787	3.688111	1.481210	0.466487	-1318.167701	3198.660784	0.000000	
1.473762	0.978687	4.934687	3.218165	1.388256	0.601162	-298.870438	640.211175	0.000000	
4.141171	1.985261	7.868460	-3.627707	0.422575	1.194867	-84.022226	-476.013396	0.000000	
7.950076	2.373765	13.386816	-10.730308	-0.936346	1.811839	35.836567	-812.319930	0.000000	
-3.478459	0.139913	-1.789354	11.395363	2.689638	-0.108730	1393.272385	-6364.848048	0.000000	
-0.644593	1.141810	1.487581	5.757122	1.730080	0.361710	-1139.490715	3826.244680	0.000000	
-0.551893	0.788194	3.044542	5.110520	1.877015	0.471949	-607.134480	1663.245373	0.000000	
2.146331	1.260328	4.586329	0.201789	1.073779	0.759124	-261.171298	27.766346	0.000000	
5.817788	2.091226	9.241102	-6.512765	-0.040777	1.285685	-31.698320	-718.270578	0.000000	
7.912667	2.026035	11.134854	-10.949072	-0.723853	1.805950	24.348491	-994.337259	0.000000	
3.425529	1.533344	7.695603	-1.862437	0.611173	0.944427	-105.181380	-254.005557	0.000000	
-2.773020	0.458475	-1.447016	9.931563	2.533403	-0.072733	1642.464682	-6846.513280	0.000000	
3.920455	1.456671	6.307632	-3.458247	0.424623	1.047064	-102.980144	-562.034288	0.000000	
4.229371	1.634222	6.999424	-3.672349	0.363166	1.120572	-86.575883	-538.577442	0.000000	
4.453140	2.162683	8.734343	-3.927980	0.420790	1.340428	-77.570420	-464.422385	0.000000	
7.510587	2.108403	10.964267	-9.828634	-0.568236	1.717092	12.604024	-908.026491	0.000000	
3.391704	1.185139	5.617803	-2.253115	0.580478	1.010179	-137.990884	-413.716446	0.000000	
-6.405591	0.418153	-3.327320	16.306318	3.281065	-0.520563	877.293686	-4894.498020	0.000000	
-1.275630	0.733075	2.871970	7.135867	1.885767	0.096762	-632.476810	2469.524691	0.000000	
-1.441257	0.598609	3.221972	7.006203	1.944024	0.312182	-579.053448	2163.270431	0.000000	
2.943795	1.528133	7.527281	-1.216418	0.673095	0.998129	-112.151334	-173.804839	0.000000	
6.797743	1.920674	11.140262	-8.234288	-0.683559	1.556953	26.334683	-749.633043	0.000000	
7.378589	2.105267	10.619431	-9.096236	-0.474396	1.734917	4.899703	-868.501447	0.000000	
-4.108947	0.400018	-1.267356	11.869982	2.781429	-0.375694	2011.971507	-9349.046399	0.000000	
3.293071	1.532835	7.523318	-1.776578	0.671893	0.926159	-114.655042	-248.387480	0.000000	
-1.393051	0.476466	-0.762252	6.700752	2.006965	0.194840	2529.615010	-8756.476914	0.000000	
4.712044	2.212712	7.344988	-4.230159	0.180070	1.157680	-61.298961	-593.640347	0.000000	
5.957200	1.912974	10.107227	-6.641648	-0.102903	1.466526	-23.676726	-668.551078	0.000000	
7.729101	2.154810	11.308426	-10.344911	-0.872528	1.681464	38.020703	-926.300904	0.000000	
-1.265466	0.868305	1.317044	7.220919	2.098378	0.272734	-1540.124983	5444.868187	0.000000	
1.305716	0.765924	4.242667	1.406199	1.259200	0.615051	-314.849840	320.500221	0.000000	
-0.068777	1.367995	3.563189	4.164731	1.661803	0.509050	-466.085126	1146.467095	0.000000	
3.784796	1.847356	7.696445	-2.723131	0.395892	1.105297	-79.817542	-368.097166	0.000000	
0.244167	0.845350	3.557691	2.654958	1.383846	0.488762	-393.611284	732.113743	0.000000	
8.266185	2.296039	9.921707	-11.078191	-0.783052	1.821444	31.389362	-1130.358216	0.000000	
1.306457	0.988942	2.339281	1.879503	1.293149	0.593454	-584.920749	778.920372	0.000000	
-1.308147	0.959797	0.798223	6.660459	1.945003	0.252970	-2345.499721	8275.825847	0.000000	
1.172165	1.159658	3.726953	2.441341	1.384660	0.651314	-389.960040	636.778729	0.000000	
-0.288609	0.836844	1.483601	5.109978	1.667579	0.396615	-1113.880077	3411.845914	0.000000	
5.651112	2.000365	9.764238	-6.684942	-0.194514	1.483396	-13.339572	-696.942880	0.000000	
5.778416	1.956922	9.415239	-6.469569	-0.252943	1.375256	-8.357685	-699.612825	0.000000	
7.377050	2.373025	11.312855	-9.957225	-0.478747	1.718190	4.943344	-892.751383	0.000000	
-1.881567	0.511219	0.973169	7.477708	2.098399	0.199541	-2048.558363	7653.589422	0.000000	
1.300314	1.248374	3.725361	2.485160	1.173783	0.579692	-335.450847	647.477507	0.000000	
0.288295	1.418245	2.868787	3.345968	1.357002	0.560329	-479.448766	1137.784053	0.000000	
1.662040	1.079476	3.550106	1.019242	1.016642	0.703054	-313.424928	269.228192	0.000000	
3.563793	1.801208	7.870891	-2.551074	0.516967	1.087872	-91.873217	-337.767919	0.000000	
4.581755	1.768366	7.863471	-4.058904	0.331252	1.176402	-75.605239	-529.602717	0.000000	
6.451686	2.187955	8.029120	-7.504058	-0.285811	1.604610	-10.275827	-950.707792	0.000000	
-3.132145	0.409096	-1.446032	10.879294	2.718646	-0.197318	1757.753231	-7508.489239	0.000000	
-0.953092	0.787806	1.660453	5.454141	1.728056	0.289410	-1009.294875	3257.296221	0.000000	
2.898383	1.529559	6.141736	-0.829704	0.766857	0.923633	-152.125887	-149.878992	0.000000	
4.540575	1.726983	6.998033	-4.404623	0.209300	1.173779	-67.101102	-644.068059	0.000000	
6.268061	2.183593	9.240908	-7.201479	-0.285492	1.500168	-7.951254	-793.375362	0.000000	
7.112081	2.189437	10.275419	-8.320323	-0.562007	1.698884	15.071663	-822.498890	0.000000	
7.512106	2.285227	11.138992	-9.957327	-0.569193	1.771387	12.472218	-906.240103	0.000000	
-5.211112	0.299368	-2.817317	14.152304	2.971471	-0.431582	950.146772	-5018.177081	0.000000	
3.079472	1.488814	5.794807	-1.347147	0.674291	0.993920	-146.965762	-247.703229	0.000000	
0.417471	1.108736	2.865173	3.646813	1.480039	0.488723	-525.524491	1250.282097	0.000000	
6.314319	2.052105	9.759686	-7.675647	-0.288036	1.536592	-7.575710	-799.074857	0.000000	
3.081676	1.668977	5.449651	-1.993493	0.580853	1.010541	-139.101090	-383.798230	0.000000	
7.066478	2.323364	10.622132	-8.836949	-0.655322	1.663433	23.579844	-845.022748	0.000000	
5.828125	1.958298	9.243228	-6.728377	-0.224033	1.482145	-11.928007	-740.625240	0.000000	
-7.024830	-0.335362	-6.272078	17.723565	3.531055	-0.760340	499.350126	-2829.601049	0.000000	
2.151977	0.992622	5.106148	0.373989	1.043383	0.885503	-228.772921	61.522790	0.000000	
-0.158532	1.013481	3.041641	4.508454	1.542926	0.417857	-505.130799	1462.735676	0.000000	
6.755586	2.143398	10.276576	-8.148602	-0.410545	1.591412	2.277668	-805.445067	0.000000	
3.564490	1.363189	5.962929	-2.424679	0.610310	0.975421	-136.678374	-420.265329	0.000000	
7.730876	2.598056	10.965328	-10.430395	-0.721736	1.753049	25.474251	-965.322781	0.000000	
6.225587	2.050187	10.106672	-7.546014	-0.348482	1.537414	-0.869196	-758.831545	0.000000	
-4.054724	0.226173	-3.171065	11.954447	2.661974	-0.255085	766.926059	-3766.663612	0.000000	
2.320167	1.437789	4.931761	0.030569	0.891802	0.742054	-208.012285	-10.972026	0.000000	
2.411577	1.436258	5.105653	0.375491	1.044239	0.850524	-231.815388	56.947622	0.000000	
6.450515	2.055824	9.586183	-8.365331	-0.381564	1.589238	1.260836	-885.490288	0.000000	
3.252622	1.621711	6.313086	-1.389398	0.734736	0.977583	-146.078587	-235.308274	0.000000	
6.974393	2.235290	9.928427	-8.450272	-0.380600	1.554781	-1.867501	-864.564028	0.000000	
5.422376	1.822187	8.550204	-5.867505	-0.189521	1.248011	-14.204699	-699.012015	0.000000	
-7.289122	-0.297056	-5.056891	18.241356	3.803563	-0.685116	670.490728	-3611.336166	0.000000	
3.389079	1.669928	6.312944	-2.337165	0.428178	1.030222	-98.734517	-385.872834	0.000000	
-0.511790	0.523605	2.348695	5.454146	1.879783	0.344871	-788.913269	2308.881673	0.000000	
5.067232	2.260966	8.901475	-5.564958	0.082735	1.249845	-42.022130	-640.236937	0.000000	
5.025540	1.818846	6.994971	-4.662480	0.148865	1.209761	-62.380348	-681.949799	0.000000	
7.824801	2.025431	10.269807	-10.518663	-0.751657	1.786314	29.653098	-1036.110450	0.000000	
6.755630	2.189872	9.237589	-8.106301	-0.348876	1.553292	-4.053716	-891.648215	0.000000	
-4.188573	0.310499	-2.823040	12.644341	2.876046	-0.235395	934.739754	-4473.621971	0.000000	
3.080152	1.491930	4.928700	-1.606537	0.673984	0.955779	-172.598822	-343.752536	0.000000	
2.233161	1.084680	4.757119	-0.099959	0.861052	0.705057	-208.129497	-34.618743	0.000000	
1.661346	1.386013	5.110863	0.977932	1.226525	0.796980	-259.010092	175.315003	0.000000	
5.776399	2.002565	9.068438	-6.513043	-0.131646	1.320843	-22.010431	-731.413177	0.000000	
5.473116	1.866414	8.898497	-6.082743	-0.100571	1.410053	-23.995621	-696.150972	0.000000	
6.536941	2.143969	10.278345	-8.536848	-0.412897	1.590873	3.699552	-843.082963	0.000000	
-6.631064	-0.245202	-5.063118	17.164931	3.377456	-0.757772	592.798803	-3393.720045	0.000000	
1.441381	1.118840	4.591556	1.450704	1.289104	0.759898	-299.156320	301.465478	0.000000	
-2.012915	0.333425	-0.238835	8.079848	2.011114	0.160976	7946.857970	-33752.792156	0.000000	
-0.249524	0.834431	3.386979	4.852855	1.665167	0.365076	-488.291632	1418.161567	0.000000	
1.478481	1.208145	4.589636	1.407949	1.229131	0.616631	-286.667581	291.184533	0.000000	
8.032738	2.421276	11.652911	-10.343685	-0.811315	1.647137	30.158453	-900.119375	0.000000	
3.298694	1.712296	6.486723	-1.949399	0.701818	1.013400	-137.513251	-316.145101	0.000000	
4.228640	1.724023	6.999564	-3.930887	0.422574	1.102599	-95.055757	-576.222822	0.000000	
-3.752933	0.445353	-1.441627	11.999729	2.752441	-0.268202	1762.407375	-8307.220523	0.000000	
1.794494	1.077276	4.242461	1.407584	1.259869	0.777097	-321.486864	316.724541	0.000000	
4.452728	1.726587	6.998750	-4.404758	0.239299	1.173749	-70.676298	-644.018294	0.000000	
5.687217	1.952952	9.761977	-5.736726	-0.068644	1.359023	-26.443859	-599.698004	0.000000	
1.349970	1.338618	4.765806	1.451809	1.016691	0.706540	-230.011044	288.057640	0.000000	
5.734079	2.047806	8.203659	-6.298420	0.081541	1.337183	-49.944997	-782.576085	0.000000	
0.374839	1.153724	3.039109	3.259202	1.356977	0.506570	-454.212507	1050.307192	0.000000	
-5.748449	-0.102803	-4.895971	15.872980	3.313312	-0.704144	610.076981	-3244.040389	0.000000	
1.301598	1.205721	3.898423	2.139969	1.353521	0.597806	-366.718029	530.765748	0.000000	
2.679682	1.221730	4.756106	-0.745693	0.768062	0.848150	-193.889659	-172.012261	0.000000	
-0.162977	1.100651	3.214238	4.724546	1.453296	0.346856	-450.085625	1449.854503	0.000000	
0.245407	0.931053	2.866501	3.559972	1.448701	0.541961	-510.981147	1222.885326	0.000000	
7.643436	2.110976	11.309391	-10.517718	-0.782948	1.717094	30.521584	-941.284518	0.000000	
4.933009	1.947265	7.861682	-4.101218	0.362212	1.194822	-82.067296	-536.382160	0.000000	
-0.740445	0.787451	1.483807	6.057599	1.853022	0.164475	-1221.617732	4051.881402	0.000000	
1.168163	1.072698	4.244347	1.881287	1.200715	0.544168	-299.127579	428.251895	0.000000	
2.546680	1.485133	4.931878	-0.572520	0.798465	0.866987	-191.659006	-133.794327	0.000000	
5.733719	2.002468	8.895951	-6.513124	-0.192201	1.338252	-15.345707	-745.587503	0.000000	
3.787465	1.761696	7.349946	-3.111930	0.545612	1.122036	-103.933955	-437.656321	0.000000	
4.052034	1.630284	7.347172	-3.197886	0.304007	1.121675	-73.109298	-448.516848	0.000000	
3.873165	1.848839	7.349458	-2.723518	0.517410	1.104668	-100.757693	-385.501543	0.000000	
3.568549	1.583732	6.658204	-2.768338	0.577423	1.102431	-117.583084	-429.937399	0.000000	
-5.747202	-0.102871	-4.203027	15.485659	3.220133	-0.667153	688.636006	-3686.592243	0.000000	
0.372390	1.065083	1.652775	4.162792	1.634662	0.432681	-1002.470123	2481.697565	0.000000	
5.072168	1.905981	8.900795	-5.436307	-0.098440	1.320906	-21.701541	-623.594147	0.000000	
-1.274214	0.690689	1.659713	7.307224	1.887590	0.076076	-1095.010421	4378.541872	0.000000	
3.915998	1.807080	7.348089	-3.197774	0.455154	1.050350	-92.630997	-449.795750	0.000000	
6.663915	2.276346	10.623166	-8.449755	-0.472626	1.520346	8.505826	-808.244138	0.000000	
5.826468	1.826718	8.549121	-6.556915	-0.192148	1.408844	-16.551296	-779.771156	0.000000	
-1.262885	0.918015	-0.068186	6.573498	1.915271	0.232847	27048.868797	-95650.565670	0.000000	
0.637009	1.285129	4.249909	3.217799	1.295899	0.545553	-314.121340	739.366026	0.000000	
1.305244	1.073443	3.552113	2.010516	1.020364	0.632128	-308.660294	548.236920	0.000000	
4.940244	1.686568	6.822201	-4.878358	-0.033753	1.226595	-36.470460	-729.754782	0.000000	
1.967783	1.434043	4.588450	0.719438	1.105892	0.741898	-265.866365	138.444722	0.000000	
-1.534503	0.649599	-0.242888	7.261998	2.009253	0.053478	7917.068502	-29749.269308	0.000000	
7.416607	2.106538	12.002230	-10.043044	-0.842061	1.611494	34.699820	-847.425414	0.000000	
0.680571	1.022145	2.862292	3.603606	1.541172	0.470883	-552.568420	1238.143766	0.000000	
-2.599804	0.547430	-0.929160	9.717115	2.351178	-0.107484	2372.653327	-10425.710601	0.000000	
0.237975	1.240768	2.520036	3.862100	1.602057	0.416661	-641.813784	1504.119291	0.000000	
1.793910	0.991820	3.894795	0.846941	1.015976	0.703664	-287.485468	202.353617	0.000000	
3.118957	1.579368	5.447116	-1.476596	0.735053	0.885707	-167.857985	-288.159764	0.000000	
5.341290	1.778348	7.686835	-5.610184	0.114036	1.371820	-54.610333	-743.636607	0.000000	
-1.445231	0.739623	0.103499	6.831426	2.037391	0.089931	-18902.382710	65602.802239	0.000000	
8.036677	2.467148	12.000315	-10.989839	-0.905522	1.718948	37.094531	-928.144062	0.000000	
1.306793	1.251153	4.419435	1.493914	1.289273	0.705891	-309.106375	321.335476	0.000000	
-2.469985	0.418726	-0.932217	9.070180	2.318808	-0.197842	2337.960005	-9705.295858	0.000000	
1.662874	1.387517	3.898874	1.106640	1.016419	0.776089	-285.413246	263.055269	0.000000	
3.338309	1.847227	6.312390	-2.293864	0.579990	0.905256	-122.341664	-380.622947	0.000000	
4.452071	1.990039	7.519950	-4.360090	0.087661	1.211092	-45.662753	-595.464163	0.000000	
6.137415	2.141194	8.549022	-7.374898	-0.195255	1.480377	-18.228805	-877.525648	0.000000	
-1.534310	0.825678	0.104719	7.219718	1.978368	0.090322	-18070.877486	68500.571744	0.000000	
7.376507	2.106980	10.964850	-9.570279	-0.446317	1.681555	2.170349	-884.408870	0.000000	
-1.139972	1.050565	1.141175	6.273289	1.823167	0.092294	-1542.359896	5444.750591	0.000000	
-3.093466	0.452840	-0.581832	10.621742	2.535805	-0.285196	4059.206708	-18212.823566	0.000000	
-1.220895	0.828603	1.488806	6.014439	1.669746	0.217709	-1076.309147	4007.732771	0.000000	
3.646937	1.760040	6.482813	-2.379655	0.429034	0.923416	-98.531792	-383.117269	0.000000	
4.894218	1.817942	8.381419	-5.308160	0.114097	1.248111	-47.164333	-646.307576	0.000000	
7.060828	2.278988	10.793490	-8.664841	-0.442508	1.556684	3.505405	-815.443875	0.000000	
1.206393	1.425319	4.071658	2.313321	1.203166	0.473088	-312.909650	547.698034	0.000000	
7.991785	2.513637	11.134530	-11.033773	-0.783931	1.663271	29.346204	-1004.430349	0.000000	
-1.539210	0.909955	1.489842	7.565846	2.069599	0.076265	-1331.959805	5043.205426	0.000000	
-0.912298	0.873560	2.179682	5.842975	1.669063	0.273210	-743.040578	2657.355685	0.000000	
-0.690805	0.791592	1.138130	5.281318	1.849668	0.234577	-1591.912499	4600.508941	0.000000	
3.777975	1.629640	6.999864	-2.939932	0.396406	0.888122	-87.700960	-433.873952	0.000000	
5.779647	1.957696	9.588588	-6.771131	-0.314997	1.393218	-1.756347	-718.434054	0.000000	
6.083321	2.006761	9.238460	-7.159231	-0.194141	1.284933	-16.719206	-787.938253	0.000000	
3.963987	1.854547	6.136616	-3.327963	0.485771	1.083308	-116.190607	-560.081847	0.000000	
4.320320	1.814131	7.173384	-4.447613	0.238585	1.174158	-67.839738	-635.018566	0.000000	
2.047363	1.565289	5.971592	0.462735	0.832156	0.619487	-159.376693	61.969261	0.000000	
-2.239388	0.421434	-1.104202	8.639061	2.377247	0.016525	2038.329935	-7803.202119	0.000000	
-0.916827	1.051515	1.659926	6.015205	1.852092	0.183034	-1085.565138	3587.423584	0.000000	
3.432643	1.671960	6.139133	-2.510113	0.669729	1.012017	-141.251765	-424.964560	0.000000	
6.308775	2.142570	9.238782	-7.805042	-0.378347	1.391943	1.850459	-858.637886	0.000000	
7.236171	2.372711	10.791666	-9.698839	-0.658138	1.501941	22.575667	-911.883213	0.000000	
5.155205	1.688468	8.550623	-5.610247	0.295157	1.176743	-69.134219	-668.013849	0.000000	
4.844437	1.637724	8.552614	-4.618658	0.056877	1.141351	-39.219167	-551.585713	0.000000	
-0.070410	1.104362	3.560641	3.776271	1.448739	0.418460	-406.553795	1042.343884	0.000000	
0.724574	1.026985	2.514683	2.612305	1.174485	0.397056	-484.005139	1015.093684	0.000000	
-2.868624	0.456110	-0.236214	9.846388	2.411327	-0.195543	9526.034868	-41576.595889	0.000000	
-0.250418	0.881586	2.347515	4.679867	1.544539	0.290716	-652.748505	1971.656838	0.000000	
3.954218	1.764035	6.306640	-2.853565	0.307091	0.886790	-84.660380	-468.976936	0.000000	
6.483192	2.142529	9.929777	-7.890592	-0.348543	1.393657	-2.320129	-807.558635	0.000000	
7.191609	2.104461	10.098083	-8.665686	-0.501756	1.483141	8.941633	-870.657566	0.000000	
5.016344	2.306843	7.860870	-5.307159	0.145838	1.068584	-55.144958	-692.414733	0.000000	
2.187835	1.483179	4.240072	0.029807	1.013122	0.704685	-268.678627	-13.409856	0.000000	
0.720993	1.068122	4.072905	2.656552	1.324656	0.401025	-335.956020	636.722734	0.000000	
1.034950	1.337606	4.246702	1.881664	1.351554	0.544639	-332.721167	424.602799	0.000000	
0.504402	1.023994	2.516738	3.129079	1.418073	0.415591	-575.489373	1219.665133	0.000000	
1.077698	1.378780	4.766237	2.270528	1.201673	0.564105	-265.596172	459.333489	0.000000	
5.551907	1.999878	8.895931	-5.996091	-0.099202	1.231246	-24.653088	-687.452768	0.000000	
7.508249	2.065575	10.097258	-9.699984	-0.657327	1.625425	22.590203	-972.946042	0.000000	
6.038456	2.183741	9.066367	-7.244853	-0.375938	1.266562	3.307811	-813.418318	0.000000	
5.604283	1.959437	8.550803	-6.772388	-0.163272	1.354962	-18.467216	-805.687991	0.000000	
-1.584231	0.513030	1.487194	7.435123	2.190225	0.003975	-1413.741091	4979.262606	0.000000	
1.302718	1.164398	3.897910	1.450202	1.229536	0.579009	-334.974024	354.472322	0.000000	
-0.556523	0.879339	1.138532	5.454366	1.729512	0.306505	-1492.433148	4746.552453	0.000000	
-3.488171	0.317908	-0.925470	10.922210	2.717806	-0.286001	2724.410071	-11783.332722	0.000000	
2.590559	1.531252	5.104582	-1.089348	0.644977	0.848904	-155.614917	-231.049916	0.000000	
6.168219	2.270159	9.758426	-6.899241	-0.223430	1.286851	-13.357061	-720.869116	0.000000	
6.748776	2.189914	10.274494	-8.493477	-0.381166	1.429931	-0.543923	-839.428330	0.000000	
7.638560	2.376903	10.443869	-10.086829	-0.598496	1.626486	15.481168	-979.395925	0.000000	
-0.563068	0.878303	1.483229	5.756033	1.973007	0.200394	-1309.698099	3846.706318	0.000000	
6.934220	2.193552	9.929040	-9.183088	-0.565621	1.589592	16.993985	-938.080167	0.000000	
-1.892741	0.600634	0.104560	7.908305	2.132303	-0.052735	-19378.207397	75310.989938	0.000000	
-1.484773	0.781376	0.625213	6.918327	1.945963	0.216594	-2980.018724	10994.615629	0.000000	
-2.508411	0.727479	-0.928291	8.941992	2.135994	-0.054407	2148.593543	-9589.588753	0.000000	
5.777366	1.957511	9.414932	-6.469914	-0.041135	1.357570	-30.848657	-699.675703	0.000000	
6.709678	2.102531	10.102289	-8.795598	-0.443282	1.500653	5.826081	-883.144300	0.000000	
7.060533	2.105335	10.272238	-9.096822	-0.504190	1.483031	9.729652	-897.886028	0.000000	
0.323759	0.929629	3.729118	3.733176	1.449695	0.383009	-394.408828	986.288160	0.000000	
6.530432	2.144058	9.583897	-8.020304	-0.258198	1.446583	-12.078784	-850.217258	0.000000	
-4.242379	0.355784	-1.959707	12.170718	2.934424	-0.430780	1375.127704	-6201.106117	0.000000	
-2.242956	0.510083	-0.758510	8.381227	2.164373	-0.054667	2686.750452	-11012.677672	0.000000	
-3.488553	0.451954	-1.444426	10.879001	2.748342	-0.304959	1766.422491	-7514.969629	0.000000	
6.842347	2.057973	9.581933	-8.321795	-0.410199	1.517865	1.955781	-881.351779	0.000000	
6.841343	1.968990	11.832151	-9.268706	-0.446553	1.540014	4.511253	-793.499059	0.000000	
7.589655	2.329318	11.655097	-9.913529	-0.628846	1.575656	16.629994	-862.600940	0.000000	
1.479946	1.210432	3.723830	1.235035	1.077896	0.596327	-312.545366	312.606424	0.000000	
6.924926	2.237113	9.753649	-8.709124	-0.411387	1.410727	1.554232	-906.591235	0.000000	
-1.840888	0.601571	0.452650	7.391433	2.038427	0.108745	-4275.917973	16253.866565	0.000000	
-1.804832	0.691835	-0.588672	7.649683	1.950612	-0.090466	3140.768227	-12929.686119	0.000000	
-3.481932	0.451912	-0.923091	10.448499	2.624414	-0.160961	2630.640054	-11292.376577	0.000000	
6.486463	2.055090	9.410507	-7.934268	-0.408953	1.428015	3.995238	-856.194617	0.000000	
6.793803	2.190563	9.062356	-7.977178	-0.287017	1.427697	-11.179121	-894.629727	0.000000	
7.103320	2.194124	11.310966	-9.656038	-0.598151	1.485006	16.858625	-865.385039	0.000000	
-0.340313	1.104712	0.963408	4.851640	1.606947	0.216276	-1648.950078	4970.764968	0.000000	
5.729614	1.912473	9.240773	-6.254424	-0.191019	1.267535	-14.905401	-689.254202	0.000000	
-1.576877	0.339779	0.621733	6.873747	2.006656	0.072565	-3086.002775	11024.310390	0.000000	
-2.693854	0.370211	-0.585085	9.673660	2.351072	-0.250357	3759.218608	-16499.071482	0.000000	
-2.152423	0.595941	0.627869	8.296473	2.162591	0.074137	-3252.773968	13159.632858	0.000000	
5.021975	1.950316	8.726483	-5.221111	0.084540	1.195532	-42.764930	-611.659229	0.000000	
7.903097	2.334386	11.653725	-10.775450	-0.662439	1.664562	18.005486	-936.687705	0.000000	
6.439513	1.965084	10.275477	-7.934069	-0.288627	1.394204	-7.861061	-783.679333	0.000000	
4.709768	1.683387	7.687059	-4.533391	0.209192	1.049943	-62.378031	-602.843219	0.000000	
2.050713	1.432795	5.452324	0.720350	1.015001	0.672253	-208.050054	116.560579	0.000000	
3.873973	1.722344	6.481921	-3.715901	0.302340	1.011626	-80.964809	-588.993327	0.000000	
-0.784494	0.873313	2.350916	6.187661	1.973535	0.220636	-821.538722	2610.365158	0.000000	
-4.546590	-0.089266	-2.997713	12.944348	2.968061	-0.415410	904.221894	-4320.557960	0.000000	
-2.334463	0.681179	0.455223	8.943204	2.105059	-0.033181	-4337.285928	19560.971627	0.000000	
7.150965	2.413889	10.793903	-9.181503	-0.595964	1.592101	17.253653	-863.980010	0.000000	
7.193037	2.284156	10.791615	-9.785166	-0.779629	1.501561	34.057921	-919.426612	0.000000	
6.882058	2.056930	10.792614	-8.579381	-0.472474	1.466703	7.211743	-806.437112	0.000000	
2.322055	1.262055	5.450437	-0.486836	0.858773	0.760389	-182.251761	-103.125334	0.000000	
2.008879	1.522806	5.280269	0.246551	0.770838	0.689129	-168.118557	29.698654	0.000000	
0.455110	1.284816	3.903134	3.389727	1.327294	0.401489	-347.388125	849.180413	0.000000	
-4.188329	0.138187	-2.651855	11.480310	2.598806	-0.308360	890.590357	-4327.050757	0.000000	
-2.296122	0.816427	-0.238779	9.028732	2.439360	-0.159556	9675.649069	-37621.095876	0.000000	
6.264783	1.876136	9.930261	-7.848589	-0.258206	1.393243	-10.183138	-801.784338	0.000000	
7.282014	2.371673	10.618962	-9.354104	-0.596066	1.555715	16.868026	-894.231075	0.000000	
7.727647	2.331469	11.135966	-10.258178	-0.962689	1.663393	46.725412	-933.735336	0.000000	
2.319480	1.216665	5.276414	-0.142049	0.769935	0.706410	-171.372567	-40.672168	0.000000	
0.683872	1.242708	4.769343	2.614445	1.353190	0.599963	-292.559496	532.744553	0.000000	
1.384663	1.205511	4.415822	2.054467	1.202104	0.509274	-290.607867	449.120996	0.000000	
-3.311775	0.674000	-0.924883	10.363531	2.322480	-0.268409	2309.408093	-11165.157642	0.000000	
-5.077937	0.036188	-2.819795	13.978835	3.213176	-0.431799	1037.678140	-4957.485903	0.000000	
3.778268	1.718554	6.480968	-2.810755	0.397392	0.887151	-94.814369	-449.384860	0.000000	
7.721502	2.508453	11.827980	-10.429892	-0.782172	1.575750	28.712959	-894.510424	0.000000	
6.842614	2.015882	9.927640	-8.968267	-0.473777	1.499998	8.262810	-915.569557	0.000000	
3.382322	1.625270	6.830292	-2.293981	0.549470	0.906153	-109.018093	-350.017879	0.000000	
1.078890	1.248384	4.419060	1.968020	1.230942	0.544902	-293.038856	428.684637	0.000000	
4.180925	1.590579	7.344294	-3.973869	0.240880	1.013374	-65.526881	-554.046953	0.000000	
-0.920719	0.919708	1.484653	6.014667	1.852693	0.074931	-1213.887187	4015.656185	0.000000	
-4.190925	0.269463	-2.305210	11.653369	2.629606	-0.325051	1037.928788	-5049.485437	0.000000	
1.390640	1.207706	3.551286	1.752424	0.928929	0.578289	-284.334247	473.567954	0.000000	
7.457465	2.329967	11.136340	-9.957149	-0.659092	1.538425	20.823304	-906.665238	0.000000	
7.723601	2.331314	10.961806	-9.913903	-0.658237	1.591989	19.727194	-917.149906	0.000000	
5.465377	2.087643	8.551362	-5.780771	-0.007627	1.266639	-35.755821	-690.516497	0.000000	
1.878030	1.434342	5.107966	0.374747	1.164332	0.706960	-249.361048	56.796899	0.000000	
2.590909	1.353302	4.757499	-0.616061	0.768376	0.848416	-192.852320	-146.265814	0.000000	
-0.425240	1.145836	2.177864	4.852386	1.786680	0.344760	-810.213740	2197.715417	0.000000	
-4.406209	0.049117	-3.515838	11.909812	2.903211	-0.292033	754.646760	-3387.503087	0.000000	
-2.065593	0.866941	-1.450200	8.166279	2.164285	-0.020035	1411.698854	-5598.411390	0.000000	
6.309344	1.788062	9.063697	-7.504432	-0.346507	1.373416	-1.615045	-839.847677	0.000000	
7.766453	2.196711	11.826396	-9.870280	-0.749348	1.593818	25.728110	-845.832213	0.000000	
6.613020	2.183113	12.353270	-8.146921	-0.442245	1.452959	4.976047	-670.223586	0.000000	
2.761894	1.528233	7.180477	-1.087751	0.795041	0.854119	-133.091492	-164.241786	0.000000	
0.191180	1.016771	2.864867	4.293038	1.482830	0.363669	-522.122930	1477.785900	0.000000	
2.945633	1.536310	5.968095	-2.166448	0.821659	0.921994	-166.155820	-378.261259	0.000000	
-2.379796	0.687087	-1.623628	8.768667	2.318095	-0.163491	1344.698053	-5377.731244	0.000000	
-5.084353	0.304163	-3.512995	13.892574	3.334913	-0.576320	867.314298	-3950.579015	0.000000	
3.700560	1.547668	4.058364	-3.072345	0.639565	0.970655	-209.541002	-779.250098	0.000000	
7.554934	2.469357	7.848314	-9.873226	-0.565454	1.620643	17.249271	-1276.472508	0.000000	
7.200117	2.242701	9.754126	-9.872769	-0.507393	1.606730	9.813712	-1025.876808	0.000000	
2.676499	1.445679	4.063461	-1.004282	0.737572	0.756974	-219.257813	-267.924217	0.000000	
-1.129619	0.696625	0.795699	6.358181	1.883611	0.270244	-2288.372873	7940.750597	0.000000	
2.635267	1.268419	4.409885	-1.091008	0.887814	0.811322	-235.640539	-264.351998	0.000000	
-1.131365	0.875777	-0.069790	6.357780	2.005505	0.214842	27826.063449	-90395.899245	0.000000	
-2.588703	0.555502	-2.312495	8.508628	2.467379	0.013572	1003.379295	-3666.748670	0.000000	
-1.436406	0.616626	-1.801259	5.407184	1.760293	0.101424	931.726179	-2983.496622	0.000000	
7.199762	2.245992	7.329310	-9.400474	-0.502954	1.511873	12.718075	-1300.593181	0.000000	
7.507679	2.466084	10.099161	-10.302413	-0.690302	1.625394	25.854120	-1034.639392	0.000000	
4.402590	1.637564	6.304245	-3.802095	0.364019	1.029348	-97.712877	-618.488046	0.000000	
0.958270	0.983521	3.382461	1.923617	0.988584	0.702880	-308.951031	551.575802	0.000000	
1.301671	1.120083	4.589897	1.105907	1.106530	0.562198	-257.778928	226.438722	0.000000	
3.919323	1.628188	8.040925	-3.111567	0.515119	1.141454	-92.198075	-399.140423	0.000000	
-4.369101	0.308404	-1.783911	12.472578	2.843994	-0.304920	1456.039671	-6982.816348	0.000000	
-0.926963	1.225228	2.004881	6.619795	1.703922	0.023319	-824.732414	3266.737723	0.000000	
4.279834	1.636172	6.481197	-3.931337	0.331860	1.226575	-89.041933	-621.553164	0.000000	
7.513014	2.777538	9.236591	-10.431601	-0.660412	1.731204	25.073605	-1147.063095	0.000000	
7.467727	2.333040	9.753625	-10.087764	-0.538236	1.696380	11.437027	-1048.491832	0.000000	
7.422393	2.241567	10.446065	-9.828668	-0.628500	1.698017	19.511104	-953.749555	0.000000	
1.744147	1.651420	4.764034	1.194336	1.046877	0.707061	-241.075040	230.436058	0.000000	
5.915379	2.181470	8.723990	-6.857382	-0.254136	1.463232	-9.701669	-800.880313	0.000000	
-1.573901	0.295007	-0.589701	7.476407	1.919434	0.105955	3104.385797	-12651.036453	0.000000	
-2.421625	0.854708	1.323622	9.202678	2.316609	0.059139	-1648.337837	6915.602172	0.000000	
-1.220188	0.910734	3.568615	6.447143	1.911369	0.366783	-517.207934	1791.491447	0.000000	
7.286302	2.103014	12.004331	-9.353715	-0.597679	1.684008	14.944826	-789.837360	0.000000	
6.840565	2.098592	11.140695	-8.277297	-0.411415	1.557502	1.690080	-754.360578	0.000000	
2.767234	1.443179	5.968741	-1.390525	0.643292	0.886479	-134.577398	-247.347080	0.000000	
-4.365005	0.131268	-1.956906	12.601151	2.935170	-0.233709	1373.962127	-6436.372123	0.000000	
-2.988748	0.590278	-0.923952	9.415126	2.317937	0.017381	2326.434319	-10155.021268	0.000000	
-2.104762	0.598543	0.801313	7.606931	2.098782	0.127575	-2472.588154	9450.355894	0.000000	
-7.910289	-0.345310	-7.477822	19.876415	4.174719	-0.850588	498.139228	-2661.452587	0.000000	
-5.770895	-0.185545	-5.410499	14.363631	3.123813	-0.348924	516.727967	-2657.506921	0.000000	
2.325299	1.349448	6.144791	-0.615545	0.978172	0.869660	-181.207100	-113.308158	0.000000	
8.084173	2.332940	12.693205	-10.860686	-0.633586	1.828336	13.393002	-866.755160	0.000000	
6.664728	2.229765	11.143048	-8.147844	-0.350929	1.575687	-2.853188	-743.244643	0.000000	
7.063477	2.278041	11.486965	-8.922714	-0.595755	1.629569	16.574264	-788.708589	0.000000	
2.419451	1.125073	6.318209	-0.098198	0.768278	1.013407	-143.870635	-26.346065	0.000000	
7.287792	2.548297	9.929166	-9.138462	-0.655583	1.679895	24.056065	-935.578451	0.000000	
0.028154	0.884578	1.656854	4.377696	1.543302	0.575606	-933.206326	2611.405160	0.000000	
-0.066951	0.970863	2.522090	4.464847	1.573429	0.470356	-623.157022	1747.884517	0.000000	
0.202890	1.014826	4.080651	3.863025	1.418242	0.652698	-351.129906	931.902199	0.000000	
8.089424	2.066944	12.346748	-10.731966	-0.874986	1.898699	33.318701	-879.419808	0.000000	
7.508048	2.238440	11.484124	-9.654852	-0.900546	1.700421	40.946727	-852.462210	0.000000	
5.826357	1.959156	9.242666	-6.771841	-0.012343	1.446500	-34.821539	-745.377874	0.000000	
0.148504	0.882754	3.384415	4.292996	1.512398	0.400533	-450.120733	1253.012812	0.000000	
2.015932	1.342034	6.147725	0.634528	0.952550	0.888566	-174.129834	90.152221	0.000000	
1.709345	1.033659	4.416577	0.976618	1.106175	0.812619	-272.962985	207.180983	0.000000	
-5.076671	0.476736	-3.335872	14.411073	3.063843	-0.360439	832.277550	-4312.825994	0.000000	
-4.453151	0.174547	-1.782821	12.558409	2.813595	-0.233467	1437.234419	-7039.442870	0.000000	
1.127170	1.246573	5.112921	1.968695	1.199738	0.671951	-247.805080	370.550587	0.000000	
8.035928	2.376035	13.039032	-10.774064	-0.663558	1.757584	15.523124	-837.330428	0.000000	
6.359147	1.961506	10.452101	-7.459859	-0.196981	1.592190	-16.078256	-725.061128	0.000000	
6.801744	2.234192	9.930670	-8.579436	-0.593631	1.608047	20.560117	-877.369293	0.000000	
-1.432497	0.913533	1.494032	6.488293	1.972807	0.433469	-1267.447830	4307.685836	0.000000	
3.748992	1.628486	7.697381	-3.327522	0.483317	1.229840	-90.904785	-444.976157	0.000000	
-2.417157	0.857781	0.112304	9.029304	2.286419	0.091891	-19152.271058	79970.917914	0.000000	
-3.342919	0.365447	-1.788661	10.404787	2.503862	-0.055736	1294.200893	-5806.430143	0.000000	
-1.039290	0.827873	1.662680	6.316100	1.973253	0.380108	-1152.506219	3769.997337	0.000000	
5.959599	1.828642	9.240903	-7.116905	-0.073989	1.445986	-28.966038	-782.068511	0.000000	
8.043394	2.512202	11.829351	-11.119506	-0.694828	1.862027	19.799081	-952.721497	0.000000	
6.717803	2.012239	9.931273	-8.451080	-0.412097	1.679637	2.753984	-863.137727	0.000000	
1.446807	1.079302	3.379800	0.760362	0.923964	0.773796	-298.184289	206.241934	0.000000	
0.775192	1.331787	4.077600	2.872782	1.445585	0.670531	-365.972835	685.389366	0.000000	
1.803855	1.434530	3.900428	0.503233	1.073846	0.954869	-302.051179	107.571001	0.000000	
-6.272750	-0.373643	-5.238348	16.647362	3.406098	-0.651123	582.248065	-3182.794144	0.000000	
-5.779097	-0.103865	-4.891610	15.786771	3.311607	-0.417614	609.921491	-3229.319937	0.000000	
-1.348118	0.782602	0.971806	6.573744	2.004567	0.324724	-1985.676078	6718.466247	0.000000	
8.267526	2.290381	11.827760	-10.817948	-0.783956	1.951683	26.274095	-926.301512	0.000000	
6.315469	2.184475	9.587744	-7.589125	-0.317922	1.572265	-4.587081	-805.141015	0.000000	
7.292527	2.459742	9.756864	-9.095765	-0.625369	1.769003	21.370903	-947.200745	0.000000	
3.260642	1.665459	7.008278	-1.905663	0.489140	1.157672	-96.686907	-286.062594	0.000000	
7.294439	2.062805	10.274192	-9.527668	-0.597424	1.769240	17.524771	-939.417907	0.000000	
-1.265594	0.866944	1.317127	7.393767	1.857167	0.272644	-1356.887556	5575.813358	0.000000	
-3.921712	0.221574	-0.400352	11.784178	2.779741	-0.105138	6392.834316	-29404.300593	0.000000	
-1.660412	0.690328	0.799599	7.262769	2.067786	0.235136	-2470.305258	9033.765473	0.000000	
7.025369	2.232310	11.142662	-8.578265	-0.564335	1.754433	14.482843	-781.911290	0.000000	
7.382573	2.106205	11.139772	-9.742132	-0.719976	1.806909	26.659308	-885.957354	0.000000	
0.467633	1.107295	4.425298	3.130771	1.475856	0.671092	-340.220837	692.619137	0.000000	
-1.701640	0.997941	1.668787	7.134882	2.126331	0.362970	-1217.751506	4241.123313	0.000000	
5.916134	2.092795	9.243135	-7.072735	-0.285828	1.482000	-5.776777	-778.704595	0.000000	
2.191883	1.210907	5.972258	0.591116	0.922836	0.870088	-175.900231	86.787889	0.000000	
-7.640513	-0.476432	-6.093978	18.886436	3.776204	-0.723317	548.526189	-3104.395890	0.000000	
0.024050	1.277845	3.563624	4.423667	1.420784	0.616466	-399.856913	1220.407473	0.000000	
6.008817	1.916910	9.588964	-7.374799	-0.196818	1.571992	-15.421797	-781.121751	0.000000	
7.735826	2.421408	11.138789	-10.603292	-0.662506	1.842664	19.722893	-964.935044	0.000000	
-3.211801	0.409436	-1.962620	10.706656	2.535963	-0.055656	1199.522962	-5444.393603	0.000000	
-1.924594	0.644783	-1.276503	8.338326	2.224981	0.177440	1657.646018	-6504.634986	0.000000	
5.825579	2.223215	9.763640	-6.942592	-0.346352	1.465518	1.208480	-724.654910	0.000000	
-0.772332	0.918750	1.661910	6.014823	1.972347	0.451789	-1161.507832	3587.391695	0.000000	
-4.846398	-0.050484	-2.299449	13.246625	2.936828	-0.198666	1158.143690	-5762.825776	0.000000	
-0.777822	0.915324	3.392351	5.930264	1.789308	0.401869	-515.376160	1732.175827	0.000000	
3.572162	1.449735	6.485478	-2.466986	0.548374	1.173748	-116.245761	-393.741245	0.000000	
7.199992	2.146852	10.966868	-8.880343	-0.534562	1.699999	11.119426	-821.539383	0.000000	
-2.279506	0.503869	0.630308	8.899530	2.285383	0.200047	-3423.688515	14073.663149	0.000000	
0.241309	0.974145	1.827037	4.550432	1.817223	0.469277	-1002.826269	2459.878060	0.000000	
6.497341	2.008476	10.279598	-8.019966	-0.350657	1.698712	-2.139601	-791.958436	0.000000	
0.296298	0.664179	3.039966	3.774959	1.479322	0.685572	-492.880715	1228.705258	0.000000	
-0.640919	0.963781	1.660852	5.843102	1.669548	0.433536	-984.371162	3484.764276	0.000000	
-2.591380	0.191168	0.456735	9.501599	2.408808	0.092190	-4956.416550	20779.007999	0.000000	
3.831838	1.805115	7.350106	-2.982171	0.394997	1.140014	-83.778804	-420.324171	0.000000	
6.050185	2.269610	9.070825	-6.899770	-0.284863	1.553781	-6.807231	-775.506923	0.000000	
3.174060	1.622201	6.316293	-1.820445	0.641075	1.156150	-130.478510	-303.437212	0.000000	
-0.645956	0.831261	2.178010	5.713680	1.729509	0.327012	-778.224212	2601.120833	0.000000	
7.112400	2.457135	10.623116	-9.009221	-0.504965	1.717403	9.181294	-861.867764	0.000000	
-0.861000	1.050606	1.316878	6.144515	1.761283	0.433090	-1301.571248	4620.395262	0.000000	
-1.578514	0.731662	1.490612	7.737829	2.039639	0.165683	-1309.693280	5162.688714	0.000000	
1.926268	1.476505	4.936300	0.763123	0.984387	0.814329	-222.100455	136.998610	0.000000	
3.743197	1.673255	6.483837	-2.724895	0.548072	1.084372	-117.708495	-435.552124	0.000000	
4.637051	1.636268	8.904357	-4.920485	0.144252	1.410547	-46.206814	-563.716283	0.000000	
4.858332	1.730535	7.344416	-5.223030	0.114678	1.370976	-53.517545	-725.190151	0.000000	
3.346992	1.490850	6.659418	-2.035812	0.549903	1.084922	-111.562484	-319.078046	0.000000	
4.811459	1.728286	8.210087	-5.093234	0.235498	1.355342	-62.353387	-632.987049	0.000000	
3.388924	1.623095	5.966807	-1.561648	0.522588	1.048116	-120.237471	-277.798115	0.000000	
-7.198427	-0.207837	-4.536855	17.811125	3.710422	-0.612552	728.027718	-3929.258079	0.000000	
0.735635	1.201177	2.865805	2.785556	1.204009	0.684994	-435.319659	947.667389	0.000000	
5.473108	2.084983	9.593031	-5.823151	0.081190	1.484143	-41.262471	-620.026496	0.000000	
0.293343	0.797728	2.866539	3.603062	1.267246	0.613301	-448.611509	1240.510730	0.000000	
-0.203556	0.883522	1.482038	4.765160	1.727081	0.324805	-1158.422511	3181.012805	0.000000	
7.642806	2.152764	11.656329	-10.043437	-0.539286	1.754544	8.688937	-872.804800	0.000000	
1.177989	1.164129	3.900969	1.234483	1.257851	0.722059	-340.176396	298.898576	0.000000	
-2.554593	0.501137	-0.063187	9.846843	2.502125	-0.033513	37329.472790	-155392.155116	0.000000	
1.178533	0.983492	4.246920	1.838018	1.169387	0.758945	-291.707085	418.982119	0.000000	
-1.311409	0.915430	0.623896	6.875655	2.006901	0.181110	-3099.573877	10937.379821	0.000000	
4.406148	1.809435	8.558329	-3.843103	0.512414	1.232144	-89.547291	-461.723826	0.000000	
5.923212	1.873268	7.858367	-6.772894	-0.132484	1.568420	-26.220108	-876.058305	0.000000	
6.091847	1.961263	9.414091	-7.073139	-0.073724	1.482563	-29.263939	-763.837440	0.000000	
4.720023	1.817158	7.690674	-5.007180	0.175921	1.264625	-58.097762	-665.141814	0.000000	
4.806565	1.640276	8.034819	-5.050341	0.115371	1.229302	-48.711378	-640.824067	0.000000	
-3.827786	0.445680	-1.610510	11.568705	2.567878	-0.018483	1460.306261	-7168.541068	0.000000	
-2.545343	0.550302	-0.407508	8.639949	2.224268	0.089650	5106.975358	-21126.974783	0.000000	
4.630059	1.769158	7.344789	-4.059116	0.240753	1.246765	-68.936295	-566.980325	0.000000	
6.225007	2.094876	9.760411	-7.459990	-0.317501	1.518862	-4.042927	-777.166513	0.000000	
4.673794	1.858273	7.691095	-4.403352	0.087815	1.247245	-46.301734	-586.895449	0.000000	
6.176644	2.226805	10.453088	-7.545587	-0.167118	1.467006	-17.954076	-734.617968	0.000000	
5.564150	1.955357	8.899220	-6.211588	-0.191948	1.481684	-14.299678	-711.133548	0.000000	
-6.628248	0.019708	-5.406796	17.380800	3.499287	-0.668272	577.630117	-3215.229259	0.000000	
0.381516	0.976481	2.866868	3.344722	1.417489	0.631451	-502.692237	1146.757405	0.000000	
0.861954	0.980370	3.554530	2.785251	1.416028	0.579133	-412.766052	767.289811	0.000000	
6.398142	2.051594	9.757985	-7.373823	-0.255895	1.465324	-11.352668	-768.280153	0.000000	
4.362283	1.945105	7.519935	-4.188095	0.239572	1.175467	-65.194000	-572.258152	0.000000	
5.688120	2.000416	8.722997	-5.995984	-0.159558	1.320440	-19.083227	-701.056604	0.000000	
5.032748	1.996484	7.863836	-5.394242	0.174385	1.390542	-58.871661	-701.013352	0.000000	
-4.941185	0.081731	-2.992500	13.720624	3.000331	-0.342958	909.183619	-4584.284099	0.000000	
1.441733	1.164417	3.725952	1.579425	1.320695	0.740156	-376.956663	405.550862	0.000000	
-0.068844	0.882308	2.347818	4.593887	1.513882	0.416129	-643.946172	1934.764024	0.000000	
1.210533	1.379444	4.072768	2.486015	0.991832	0.562541	-260.992182	590.582590	0.000000	
7.774838	2.242638	12.175054	-10.645660	-0.905000	1.755012	37.714660	-885.530977	0.000000	
5.025681	1.641607	8.725442	-5.437503	0.053212	1.230650	-39.203288	-634.547033	0.000000	
-0.953428	0.918096	1.488524	6.100859	1.882154	0.325834	-1229.291460	4063.176337	0.000000	
-2.989131	0.457003	-0.924827	9.544187	2.258105	-0.000672	2259.516559	-10293.061109	0.000000	
1.701497	1.473444	5.629571	0.978874	1.075210	0.744467	-208.738972	158.382504	0.000000	
4.625895	1.768221	8.555812	-4.359957	0.238657	1.195595	-59.017895	-521.998765	0.000000	
0.690153	1.114788	2.518462	2.526233	1.233565	0.612123	-505.972296	977.436515	0.000000	
8.477843	2.515279	12.516712	-11.678496	-1.028913	1.755572	43.412129	-945.120235	0.000000	
2.813674	1.531167	6.316057	-1.519135	0.551512	0.958901	-113.101590	-254.934447	0.000000	
0.681065	1.110059	3.728795	3.216723	1.417598	0.508385	-391.211561	845.154557	0.000000	
3.737720	1.805297	6.829656	-2.509220	0.881763	1.014305	-160.602414	-383.044813	0.000000	
1.261419	1.120511	4.244987	1.148424	1.288062	0.633245	-320.891708	254.913304	0.000000	
4.623759	1.944616	8.210189	-3.972048	0.452456	1.177738	-87.495306	-497.897296	0.000000	
5.206675	1.732192	8.206359	-5.652758	-0.128700	1.318842	-20.703555	-701.482752	0.000000	
6.532051	2.011009	10.622427	-8.536920	-0.442962	1.483969	6.410393	-815.104600	0.000000	
-6.543994	-0.067887	-4.197009	16.906997	3.708413	-0.719457	795.312470	-4030.064655	0.000000	
-1.971997	0.334884	-0.413359	8.036378	2.162723	0.089055	4963.603735	-19396.989237	0.000000	
1.078720	1.469896	3.900838	2.054604	1.140981	0.543991	-308.799747	504.752974	0.000000	
4.450241	1.813195	7.518320	-4.274471	0.148781	1.157230	-53.788351	-582.885168	0.000000	
6.665509	2.101228	10.102703	-8.622988	-0.563628	1.500662	17.983387	-866.015445	0.000000	
6.623628	2.098494	10.623646	-8.278019	-0.351274	1.592011	-2.704634	-791.102967	0.000000	
6.977242	2.147091	10.448070	-8.837978	-0.473706	1.609144	7.082233	-858.238974	0.000000	
4.627209	1.813694	7.517353	-4.145141	0.270697	1.193443	-71.333947	-565.759680	0.000000	
0.638548	1.333165	4.076895	2.527709	1.444197	0.544689	-363.814994	600.847796	0.000000	
-0.424811	1.011435	1.831071	5.326237	1.637847	0.344045	-882.244957	2877.003175	0.000000	
2.366942	1.570304	5.625737	-0.313305	0.859198	0.833130	-177.120582	-72.165592	0.000000	
4.851891	1.686400	7.342219	-5.136860	0.055169	1.227606	-45.379114	-713.333329	0.000000	
4.890762	1.906637	8.553997	-5.479952	-0.068006	1.176627	-24.917408	-653.949693	0.000000	
2.718282	1.531299	5.448910	-0.873915	0.978980	0.796645	-208.443442	-176.964381	0.000000	
1.119518	1.558724	3.727023	2.226961	1.293467	0.490332	-364.692137	573.238691	0.000000	
