NO_OF_SAMPLES	4800
FREQUENCY	960
TIME_STAMP	2020-02-08, 11:27:47	226745.10205250
FIRST_SAMPLE	1
DESCRIPTION	Force data in local (force plate) coordinates
DATA_INCLUDED	Force
FORCE_PLATE_TYPE	Amti
FORCE_PLATE_MODEL	Unknown
FORCE_PLATE_NAME	Embedded Force Plate
FORCE_PLATE_CORNER_POSX_POSY_X	0.000000
FORCE_PLATE_CORNER_POSX_POSY_Y	1200.000048
FORCE_PLATE_CORNER_POSX_POSY_Z	0.000000
FORCE_PLATE_CORNER_NEGX_POSY_X	600.000024
FORCE_PLATE_CORNER_NEGX_POSY_Y	1200.000048
FORCE_PLATE_CORNER_NEGX_POSY_Z	0.000000
FORCE_PLATE_CORNER_NEGX_NEGY_X	600.000024
FORCE_PLATE_CORNER_NEGX_NEGY_Y	0.000000
FORCE_PLATE_CORNER_NEGX_NEGY_Z	0.000000
FORCE_PLATE_CORNER_POSX_NEGY_X	0.000000
FORCE_PLATE_CORNER_POSX_NEGY_Y	0.000000
FORCE_PLATE_CORNER_POSX_NEGY_Z	0.000000
FORCE_PLATE_OFFSET_X	-0.787400
FORCE_PLATE_OFFSET_Y	-0.812800
FORCE_PLATE_OFFSET_Z	-56.108600
FORCE_PLATE_LENGTH	1200.150000
FORCE_PLATE_WIDTH	600.202000
Force_X	Force_Y	Force_Z	Moment_X	Moment_Y	Moment_Z	COP_X	COP_Y	COP_Z
-3.988757	-10.068686	-69.000202	30.241314	1.616749	-0.141157	19.400162	-447.278944	0.000000	
10.450308	-7.227978	-51.243011	2.604510	-2.604004	2.212478	-40.161587	-59.553720	0.000000	
11.787808	-6.993390	-50.382117	0.193425	-3.006534	2.589199	-47.334396	-12.440223	0.000000	
10.765683	-7.221697	-52.283021	1.871342	-2.787422	2.298885	-42.548073	-44.355460	0.000000	
6.372099	-7.933567	-55.896757	10.612544	-1.544564	1.507845	-22.023592	-198.636185	0.000000	
5.181938	-8.119534	-57.966627	12.505595	-1.144116	1.396627	-15.509061	-224.409917	0.000000	
11.383470	-7.348818	-51.076497	0.622717	-3.094933	2.336258	-48.876488	-21.077484	0.000000	
4.917870	-8.474967	-58.659385	13.020948	-1.020752	1.341162	-13.484731	-230.894763	0.000000	
11.211611	-7.129472	-51.591798	1.010564	-2.942421	2.443276	-45.626948	-28.154131	0.000000	
9.792085	-7.319578	-53.142714	3.507287	-2.479156	2.172560	-37.099731	-74.538392	0.000000	
12.088974	-7.122908	-50.041331	-0.237259	-3.188756	2.428175	-50.955151	-4.058072	0.000000	
-0.050635	-8.922161	-64.172335	22.321022	0.466921	0.438983	6.444369	-356.443180	0.000000	
2.032811	-8.683113	-61.240054	18.748358	-0.091665	0.837756	-0.421742	-314.913683	0.000000	
8.197386	-7.866226	-55.040861	6.563324	-2.104246	1.882908	-30.661614	-128.076204	0.000000	
3.138942	-8.450551	-60.380585	16.811071	-0.370742	0.982023	-4.010627	-287.083962	0.000000	
-0.575493	-9.238907	-64.688001	23.569351	0.592212	0.492030	7.868324	-373.180663	0.000000	
7.924193	-7.825074	-55.733410	7.596809	-1.766358	1.703320	-24.502843	-144.996747	0.000000	
8.992389	-7.464084	-53.138410	5.360070	-2.412104	2.048299	-36.685230	-109.564074	0.000000	
6.775606	-7.970150	-55.552449	9.190089	-1.399344	1.633038	-19.133562	-174.293601	0.000000	
7.395283	-7.921847	-55.036674	8.458989	-1.825129	1.723220	-26.410128	-162.586259	0.000000	
2.215989	-8.811476	-61.240915	17.714059	-0.489358	0.925807	-6.747826	-298.137849	0.000000	
10.094652	-7.229158	-52.799847	3.335688	-2.509214	2.083951	-37.583280	-71.671070	0.000000	
-0.841727	-9.286036	-64.340310	23.827778	0.683235	0.457122	9.097641	-379.250582	0.000000	
9.965176	-7.540074	-52.973119	3.550169	-2.538780	2.101077	-38.158205	-75.817489	0.000000	
10.230281	-7.405118	-52.281496	2.990833	-2.511078	2.156329	-37.838192	-65.966330	0.000000	
10.505559	-7.534572	-51.762021	2.043001	-2.727593	2.371363	-42.094537	-48.449189	0.000000	
5.094654	-8.294104	-59.006240	12.460951	-1.082985	1.340110	-14.296672	-219.879831	0.000000	
5.313741	-8.206630	-57.621984	12.289936	-0.993736	1.397357	-12.859000	-222.089436	0.000000	
3.985471	-8.572195	-59.520389	14.485034	-0.985060	1.142742	-13.580334	-252.256188	0.000000	
6.947905	-7.970002	-55.554830	9.319931	-1.609703	1.561400	-22.745272	-176.623192	0.000000	
10.720321	-7.223211	-52.109750	2.044039	-2.877585	2.281422	-44.466032	-47.815960	0.000000	
8.416592	-7.465294	-54.867402	6.047434	-2.106181	1.901475	-30.567157	-118.666042	0.000000	
11.290666	-7.531565	-50.038405	1.484955	-2.910429	2.303614	-46.290959	-38.934335	0.000000	
-0.001823	-9.541086	-64.348346	22.405461	0.437230	0.473554	6.005749	-357.322316	0.000000	
4.553804	-7.995205	-58.309985	14.014088	-1.077476	1.182149	-14.883933	-248.843862	0.000000	
0.488564	-9.403488	-64.523041	21.673604	0.132461	0.598038	1.690380	-344.894853	0.000000	
4.424146	-8.348575	-58.310685	13.840354	-0.987842	1.181449	-13.471349	-246.201452	0.000000	
-0.888342	-9.196811	-64.859839	23.870764	0.623516	0.384308	8.057401	-376.804857	0.000000	
9.260662	-7.589361	-54.526790	4.712026	-2.352616	2.044422	-34.404143	-95.039048	0.000000	
9.660273	-7.498785	-53.316130	4.023698	-2.356077	2.172432	-34.811864	-84.173010	0.000000	
11.074110	-7.131704	-51.418859	1.484424	-2.698466	2.354748	-41.183339	-37.464218	0.000000	
9.657836	-7.411066	-53.316168	4.196447	-2.385415	2.136873	-35.364665	-87.320728	0.000000	
4.246502	-8.395460	-58.309703	14.357086	-0.774223	1.164085	-9.978970	-255.112555	0.000000	
6.378029	-8.105600	-56.935895	10.007566	-1.516303	1.540379	-21.133803	-184.569630	0.000000	
6.150896	-7.757494	-55.894344	10.569613	-1.484826	1.490064	-21.177790	-197.699895	0.000000	
10.324895	-7.315128	-52.799373	2.818468	-2.602453	2.280431	-39.104860	-61.967117	0.000000	
10.720729	-7.400803	-51.244834	1.828567	-2.818805	2.300976	-44.055766	-44.598984	0.000000	
11.423113	-7.039647	-50.729642	0.709843	-2.913003	2.302028	-45.575174	-22.591534	0.000000	
1.549159	-8.862611	-62.449436	19.393068	-0.058689	0.781202	-0.335319	-319.315862	0.000000	
6.331310	-7.975021	-56.761995	10.395918	-1.424033	1.523526	-19.616755	-191.845286	0.000000	
-5.938828	-10.439576	-71.414419	33.555372	2.234496	-0.503166	25.835742	-478.883231	0.000000	
6.375440	-8.198454	-55.724445	10.353448	-1.666971	1.543299	-24.282541	-194.865015	0.000000	
2.878500	-8.585402	-60.897817	17.069105	-0.612036	1.016231	-8.185480	-289.013936	0.000000	
7.487728	-7.740822	-56.247624	8.156764	-1.795243	1.774153	-25.234949	-153.549759	0.000000	
10.054286	-7.276522	-52.451926	3.723852	-2.508332	2.192552	-37.853722	-79.592126	0.000000	
8.371694	-7.645406	-54.521624	6.564543	-2.104262	1.902512	-30.767025	-129.083303	0.000000	
3.629741	-8.222127	-59.689333	15.045837	-0.862312	1.107473	-11.822082	-260.610801	0.000000	
5.225468	-8.296194	-57.795021	12.505127	-1.053297	1.378984	-13.939109	-225.237234	0.000000	
11.079025	-7.530146	-51.593124	1.526627	-2.910054	2.407298	-45.142636	-38.591724	0.000000	
7.883385	-7.739765	-55.211698	7.813273	-1.917635	1.812254	-27.508348	-150.193101	0.000000	
11.430690	-7.128985	-50.554705	0.666701	-2.944246	2.463468	-46.339760	-21.912679	0.000000	
8.284666	-7.734211	-54.001775	6.305892	-2.075901	1.921241	-30.620861	-125.620684	0.000000	
10.146826	-7.318235	-52.278799	3.077396	-2.602142	2.263880	-39.671571	-67.532228	0.000000	
10.851365	-7.089603	-51.244427	1.613950	-2.789174	2.301355	-43.334842	-40.070497	0.000000	
9.388489	-7.503829	-53.315825	4.886076	-2.503621	2.029615	-37.865426	-100.353713	0.000000	
-0.800808	-9.326761	-65.554457	23.783581	0.684670	0.328761	8.971479	-371.602125	0.000000	
2.121951	-8.944073	-62.454890	18.445147	-0.242699	0.762419	-2.767062	-304.183542	0.000000	
2.394657	-8.630142	-62.279772	17.497943	-0.247170	0.959611	-2.598732	-289.544883	0.000000	
8.464253	-7.508280	-54.520805	5.616451	-2.078304	1.973528	-30.196114	-111.554571	0.000000	
10.718859	-7.355601	-51.764713	1.914444	-2.787535	2.246183	-43.019163	-45.769224	0.000000	
1.867325	-8.681481	-61.928813	18.230631	-0.306317	0.996487	-4.041853	-303.058808	0.000000	
7.264197	-7.920501	-55.901450	8.501032	-1.673301	1.703308	-23.429330	-160.834417	0.000000	
-0.402009	-8.882670	-63.995544	22.838323	0.467937	0.475557	6.172157	-365.474395	0.000000	
0.178006	-9.094403	-64.173319	21.329336	0.250884	0.563068	3.277708	-341.135084	0.000000	
8.813608	-7.642511	-54.524515	6.392528	-2.104009	1.956397	-30.306047	-125.918704	0.000000	
11.740091	-7.080420	-50.210597	-0.194638	-3.098907	2.481470	-49.386446	-4.848499	0.000000	
8.017961	-7.827037	-54.346916	7.167432	-2.102541	1.867176	-31.196941	-140.776521	0.000000	
11.429890	-6.951119	-51.073433	0.709846	-2.913330	2.444663	-45.272664	-22.347746	0.000000	
10.942231	-7.354974	-51.592161	1.871704	-2.787618	2.336282	-42.919082	-45.090474	0.000000	
12.093749	-7.078549	-50.039643	-0.323485	-3.098851	2.535746	-49.154801	-2.285275	0.000000	
5.846098	-8.069418	-55.892841	10.783821	-1.363867	1.525556	-19.320193	-201.850802	0.000000	
-3.061926	-9.883668	-67.101299	28.390785	1.336876	-0.030362	16.575540	-432.180660	0.000000	
7.618743	-7.828652	-54.691154	7.382076	-1.950811	1.776876	-28.640795	-143.821862	0.000000	
6.066853	-8.111431	-57.106872	11.084883	-1.451587	1.505055	-20.245381	-202.890131	0.000000	
7.487151	-7.832078	-54.862640	8.114519	-1.796691	1.813093	-25.879106	-156.728848	0.000000	
10.985615	-7.224392	-51.071991	2.088168	-2.817360	2.373757	-43.882894	-49.636402	0.000000	
11.560523	-6.998648	-49.343020	0.625457	-3.187202	2.484248	-52.234547	-21.446753	0.000000	
5.348393	-7.990720	-56.237502	12.895398	-1.052179	1.311963	-14.160820	-238.087669	0.000000	
0.662440	-9.090955	-64.350184	21.200332	0.251742	0.580784	3.702263	-338.191989	0.000000	
-1.558003	-9.336099	-65.550434	25.205349	0.840804	0.168570	10.705840	-393.322553	0.000000	
8.060612	-7.605960	-54.519309	7.340274	-2.010787	1.867399	-29.373922	-143.276709	0.000000	
4.209434	-8.748343	-59.002498	14.269614	-0.986173	1.233226	-13.498511	-250.979681	0.000000	
7.262700	-7.835489	-54.861799	8.760763	-1.642895	1.742081	-23.305702	-168.514207	0.000000	
9.704915	-7.455183	-52.276520	3.550886	-2.631285	2.210062	-40.705041	-76.739541	0.000000	
12.311315	-6.945009	-49.694830	-0.408849	-3.098829	2.518922	-49.244316	-0.426950	0.000000	
8.284004	-7.913167	-53.656394	6.650488	-2.014131	1.922203	-29.662368	-133.033480	0.000000	
2.346266	-8.676402	-61.588127	17.584739	-0.368155	0.889450	-4.627576	-294.238835	0.000000	
8.941623	-7.331173	-54.005507	5.876758	-2.227155	1.903799	-32.736970	-117.247228	0.000000	
8.643971	-7.948485	-55.043523	5.615009	-2.107668	1.989636	-30.267112	-110.925439	0.000000	
6.817951	-7.925611	-55.899306	9.362430	-1.398027	1.596655	-18.953655	-176.255496	0.000000	
6.774177	-8.104491	-55.553515	9.491849	-1.609570	1.597078	-22.918855	-179.857829	0.000000	
11.517700	-7.215352	-50.729726	0.364828	-3.096302	2.408777	-49.083745	-15.984799	0.000000	
11.959895	-7.034706	-50.558412	-0.108346	-3.097626	2.480956	-48.782827	-6.476781	0.000000	
3.054565	-8.714739	-61.592933	16.981866	-0.459964	0.978759	-5.472629	-284.462845	0.000000	
-4.172438	-9.980635	-68.307930	30.026051	1.796808	-0.282846	22.089858	-448.580001	0.000000	
7.930738	-7.736266	-55.211637	7.037310	-1.951366	1.847314	-28.071201	-136.135387	0.000000	
6.422866	-8.016426	-57.281805	10.050651	-1.485543	1.557712	-20.430025	-184.124784	0.000000	
-0.757480	-9.020490	-64.859795	24.173054	0.715886	0.402980	9.594760	-381.313243	0.000000	
7.043028	-8.058237	-55.207738	8.975501	-1.823592	1.704903	-26.660910	-171.579387	0.000000	
9.524825	-7.369622	-53.141152	4.541730	-2.444890	2.137536	-36.738169	-94.059354	0.000000	
9.440881	-7.501598	-52.447701	3.938004	-2.388179	2.210045	-36.222013	-83.922422	0.000000	
6.952745	-8.187136	-56.594413	8.930396	-1.580403	1.576166	-21.819401	-166.726081	0.000000	
11.654249	-7.214130	-50.729383	0.278362	-2.854687	2.516538	-44.170205	-14.279096	0.000000	
2.656729	-8.941116	-60.898560	17.541456	-0.186821	0.962724	-1.407382	-297.094501	0.000000	
10.457048	-7.229529	-52.452941	3.293689	-2.781963	2.335499	-42.638861	-71.339410	0.000000	
8.996125	-7.594736	-53.831607	5.272723	-2.291077	2.082331	-33.970826	-106.677240	0.000000	
9.705213	-7.542240	-52.450357	3.377937	-2.571336	2.191497	-39.429456	-73.283649	0.000000	
4.469637	-8.258608	-59.002834	13.883112	-0.926556	1.197994	-12.240598	-243.961984	0.000000	
7.795802	-7.829303	-55.038262	7.813270	-2.039005	1.812339	-29.887036	-150.755057	0.000000	
4.956547	-8.121437	-57.966321	12.850029	-0.991516	1.289485	-13.094731	-230.354906	0.000000	
3.100027	-8.539009	-59.340507	16.121997	-0.496208	1.091001	-6.218250	-280.572954	0.000000	
6.028272	-8.285689	-56.587130	10.136301	-1.486887	1.576678	-21.086169	-188.155742	0.000000	
7.174702	-8.011491	-56.074496	9.147028	-1.519207	1.685591	-20.700994	-171.951945	0.000000	
-2.657876	-9.612702	-66.754629	27.228245	1.271263	0.149072	16.022414	-416.777969	0.000000	
4.073993	-8.438165	-59.866472	14.485027	-0.863629	1.160228	-11.395054	-250.676876	0.000000	
8.058276	-7.695350	-53.827785	7.254392	-2.041819	1.832959	-30.320101	-143.604610	0.000000	
1.365577	-8.909749	-61.411275	19.522774	0.031823	0.658294	0.978461	-326.855334	0.000000	
9.699833	-7.367524	-53.836107	4.670585	-2.382613	2.100378	-34.934902	-95.246939	0.000000	
8.243507	-7.601874	-54.865538	6.650506	-2.104276	1.973412	-30.710446	-129.801529	0.000000	
8.857733	-7.818289	-53.660262	5.875197	-1.985880	1.957832	-28.533918	-118.476591	0.000000	
11.067315	-7.044393	-50.554343	1.399214	-2.759602	2.249292	-43.090995	-36.308564	0.000000	
9.525439	-7.409739	-54.008285	4.066552	-2.476326	2.081165	-36.742383	-83.805664	0.000000	
4.027513	-8.264361	-58.653175	14.529575	-0.864628	1.181297	-11.675988	-256.438812	0.000000	
3.986201	-8.530428	-58.653621	14.658036	-0.803806	1.216891	-10.678446	-258.881545	0.000000	
9.480910	-7.676419	-53.490130	4.109286	-2.476577	2.064094	-37.142071	-85.688257	0.000000	
9.074919	-7.639270	-52.449362	4.928942	-2.353299	1.923967	-35.947366	-102.960293	0.000000	
3.496357	-8.443471	-59.863247	15.217000	-0.619553	1.053322	-7.859802	-262.922734	0.000000	
8.900324	-7.377266	-53.484809	6.049095	-1.985318	1.994942	-28.569741	-121.651287	0.000000	
-0.757461	-9.283967	-65.554343	24.214655	0.837875	0.347365	11.345663	-378.141969	0.000000	
-1.684538	-9.514559	-66.241392	25.678346	0.903240	0.256680	11.421323	-396.519981	0.000000	
5.227537	-8.121432	-57.273517	12.592439	-1.144464	1.470048	-15.648617	-228.633995	0.000000	
9.259088	-7.680441	-52.968418	4.583639	-2.324266	2.065806	-34.859619	-95.483888	0.000000	
8.900000	-7.552368	-53.313306	5.488671	-2.259942	1.940491	-33.810594	-111.712396	0.000000	
10.897947	-7.224756	-50.551725	1.872735	-2.698073	2.392760	-42.064017	-45.877651	0.000000	
6.645000	-8.060691	-56.071002	9.534842	-1.790972	1.631498	-26.079089	-178.928333	0.000000	
6.822070	-7.968942	-56.244963	9.146856	-1.640909	1.649038	-23.156201	-171.387749	0.000000	
2.038400	-8.945997	-61.240631	18.058127	-0.306672	0.890190	-3.927471	-303.880785	0.000000	
2.297135	-8.766947	-61.589434	18.187738	-0.183722	0.800503	-1.677698	-304.105713	0.000000	
4.386589	-8.349036	-58.827897	14.012379	-0.987303	1.305765	-13.386493	-246.968665	0.000000	
5.136305	-8.387090	-57.968044	13.065088	-1.020578	1.361051	-13.421727	-234.315175	0.000000	
9.877647	-7.456866	-51.585560	4.025241	-2.236012	2.212723	-33.389375	-86.953878	0.000000	
8.375247	-7.731702	-54.867828	6.219106	-2.105661	1.937046	-30.599735	-122.066396	0.000000	
7.483528	-8.052983	-55.384558	8.458273	-1.733771	1.704387	-24.510265	-161.690027	0.000000	
8.685115	-7.862428	-53.658508	5.487265	-2.230234	1.992827	-33.269184	-111.296959	0.000000	
8.143891	-7.781207	-54.522673	7.210489	-2.010574	1.741658	-29.282555	-141.067879	0.000000	
7.046698	-8.015952	-54.686468	9.191204	-1.551350	1.832173	-21.925522	-177.108120	0.000000	
11.610004	-7.127277	-50.035828	0.107060	-3.098295	2.535767	-49.689842	-10.944778	0.000000	
11.875060	-7.080789	-49.691095	-0.280301	-3.099710	2.572287	-49.758282	-3.167192	0.000000	
7.482672	-8.010693	-53.825830	8.114788	-1.766964	1.743662	-25.814817	-159.923346	0.000000	
1.501766	-9.084325	-62.278283	19.478797	-0.088421	0.691724	-0.854188	-321.767463	0.000000	
-2.753885	-9.658753	-66.583208	27.573152	1.212593	-0.011608	15.103644	-423.067777	0.000000	
-1.017156	-9.378308	-64.685183	24.603192	0.656160	0.474696	8.474209	-389.300458	0.000000	
6.769671	-7.927701	-55.900067	9.664753	-1.759403	1.506954	-25.466552	-181.663491	0.000000	
9.879233	-7.366168	-52.450881	3.723624	-2.629812	2.192164	-40.357793	-79.685248	0.000000	
11.205338	-7.307066	-50.901978	1.010495	-2.881943	2.319309	-45.053406	-28.719060	0.000000	
1.677215	-8.775937	-61.238530	19.394416	-0.059225	0.766388	-0.217797	-325.556421	0.000000	
2.167378	-8.813296	-61.414671	18.360141	-0.213934	0.854639	-2.290713	-307.818312	0.000000	
-1.866654	-9.295625	-66.066991	26.023591	1.055730	0.168229	13.607000	-402.604298	0.000000	
1.637582	-8.820182	-61.583590	19.394132	-0.150108	0.837032	-1.732869	-323.772535	0.000000	
7.838437	-7.561663	-55.210755	7.511875	-1.888799	1.794308	-27.032195	-144.555620	0.000000	
10.275715	-7.141486	-51.759942	3.078292	-2.511386	2.247655	-38.168232	-68.026766	0.000000	
9.086425	-7.770126	-53.486542	4.927484	-2.171787	2.118567	-31.859889	-101.089509	0.000000	
8.012426	-7.647840	-54.867193	7.081016	-1.950763	1.740881	-28.147962	-137.691053	0.000000	
9.518690	-7.503076	-52.104663	4.412627	-2.324851	2.032310	-35.156128	-93.580198	0.000000	
10.316531	-7.492282	-52.456529	2.947404	-2.510649	2.102058	-37.614133	-65.014258	0.000000	
9.345620	-7.369995	-53.660827	4.756645	-2.413387	2.046848	-35.990320	-97.161761	0.000000	
11.300456	-7.352142	-50.900643	1.139883	-2.912034	2.480639	-45.540878	-31.311466	0.000000	
10.231941	-7.096013	-51.932729	2.776624	-2.633636	2.228934	-40.445160	-61.945184	0.000000	
5.008006	-8.254501	-57.618882	12.720569	-0.932411	1.451313	-12.093055	-229.621776	0.000000	
5.312326	-8.472139	-57.970449	12.461691	-1.204097	1.324417	-16.416574	-223.979108	0.000000	
-0.493612	-9.196185	-63.823965	23.785473	0.804752	0.422992	11.387593	-381.570374	0.000000	
0.439224	-8.963960	-62.616294	21.374343	0.250407	0.603023	3.605245	-350.199470	0.000000	
6.024593	-8.064221	-57.798835	10.782315	-1.271018	1.503344	-16.929363	-195.190204	0.000000	
5.842767	-8.025438	-57.278713	11.558877	-1.358923	1.433529	-18.788747	-210.474862	0.000000	
-1.682678	-9.424138	-66.240719	25.118403	0.719173	0.273978	8.644272	-387.994257	0.000000	
5.405052	-8.029955	-57.620541	12.247720	-1.175555	1.487024	-15.925838	-221.190278	0.000000	
1.234808	-9.044181	-62.103223	20.039234	-0.056417	0.656774	-0.580228	-331.660216	0.000000	
7.126728	-8.101158	-55.383107	9.104209	-1.550022	1.615333	-21.554579	-173.406105	0.000000	
10.813103	-7.268162	-50.896959	1.699844	-2.729205	2.427437	-42.489234	-42.222945	0.000000	
11.519063	-7.081411	-51.421294	0.407668	-3.035145	2.425358	-47.243375	-16.467726	0.000000	
8.325486	-7.689284	-54.868502	6.779268	-1.860938	1.848322	-26.190076	-132.230701	0.000000	
6.731120	-8.059568	-55.033371	8.975123	-1.703240	1.615651	-24.873986	-172.114943	0.000000	
10.195800	-7.539687	-52.452111	3.249055	-2.540967	2.352981	-38.324403	-70.821348	0.000000	
9.744231	-7.500697	-52.624525	4.154062	-2.597566	2.120259	-39.758401	-87.747838	0.000000	
10.098737	-7.362896	-53.492453	3.852098	-2.476389	2.154314	-36.488937	-80.547780	0.000000	
12.138433	-7.122335	-50.386429	-0.237519	-3.158554	2.534909	-49.957061	-4.030046	0.000000	
6.690420	-7.971081	-56.416718	9.577590	-1.548554	1.666975	-21.582016	-178.505461	0.000000	
0.920265	-8.870442	-63.313327	21.202038	0.251857	0.530021	4.006083	-343.548642	0.000000	
2.253287	-8.503172	-61.067674	18.188825	-0.154266	0.855883	-1.243249	-306.472484	0.000000	
1.454801	-8.953913	-61.931272	19.824173	0.003517	0.675239	0.587417	-329.024441	0.000000	
-0.401632	-9.062941	-63.649634	23.441615	0.530711	0.512606	7.196551	-377.093421	0.000000	
11.388319	-7.348225	-50.901950	0.407015	-2.914902	2.444143	-45.499224	-16.908709	0.000000	
9.790065	-7.453618	-52.797611	3.679689	-2.508752	2.137489	-37.899776	-78.428067	0.000000	
8.240208	-7.649109	-53.654184	6.780693	-2.104596	1.958433	-31.395438	-135.189528	0.000000	
9.792585	-7.585606	-53.837237	4.066319	-2.385258	2.153254	-34.886649	-84.248304	0.000000	
8.151422	-7.691972	-54.520032	6.908875	-1.952106	1.902796	-28.203756	-135.450671	0.000000	
3.099596	-8.759007	-60.034807	16.293165	-0.434141	1.035515	-5.122006	-280.394294	0.000000	
10.321500	-7.537968	-52.628307	3.205997	-2.600543	2.209231	-39.196738	-69.766980	0.000000	
11.876534	-6.991928	-50.209710	-0.237106	-3.250420	2.588983	-52.252437	-3.903868	0.000000	
8.373035	-7.687141	-54.521915	6.046946	-2.046068	1.901998	-29.698145	-119.632192	0.000000	
2.744684	-8.632038	-60.031428	17.198451	-0.340298	1.018547	-3.890727	-295.371548	0.000000	
-0.132775	-9.190634	-63.998009	22.751448	0.498203	0.564800	6.880856	-364.372886	0.000000	
-0.537696	-9.106104	-64.689399	23.570131	0.350867	0.366592	4.170092	-373.069495	0.000000	
-0.401518	-9.370656	-64.690824	23.569331	0.471956	0.438077	6.159920	-373.278382	0.000000	
11.298249	-7.217695	-51.073893	0.881372	-2.882588	2.426458	-44.814962	-25.998791	0.000000	
8.900945	-7.420195	-53.831495	5.876425	-2.106719	1.975837	-30.645375	-117.710198	0.000000	
3.590441	-8.710949	-58.997667	15.217257	-0.741564	1.198230	-9.942151	-267.026994	0.000000	
6.598788	-7.793908	-56.416129	9.448694	-1.579345	1.595358	-22.219147	-176.046359	0.000000	
9.257749	-7.641325	-52.794477	5.618611	-2.289700	2.103173	-34.318567	-115.358026	0.000000	
5.051978	-8.428402	-57.794016	12.202733	-1.024955	1.396309	-13.617371	-220.137208	0.000000	
11.163801	-7.131320	-50.033928	0.666896	-2.975435	2.410736	-47.736535	-22.138811	0.000000	
9.481969	-7.590763	-52.622358	4.368549	-2.234523	2.156376	-33.140621	-91.923423	0.000000	
1.326831	-8.643646	-62.966329	19.867313	-0.056651	0.744788	-0.504784	-324.037863	0.000000	
6.823093	-8.058665	-55.898669	9.276137	-1.580258	1.685750	-22.208721	-174.847316	0.000000	
9.885125	-7.630040	-51.931653	3.076641	-2.663709	2.281900	-41.399780	-68.300568	0.000000	
4.600978	-8.217883	-58.137303	14.315365	-1.015929	1.254283	-13.821622	-254.977645	0.000000	
12.050869	-7.298610	-50.213756	-0.496755	-3.099509	2.516885	-49.048111	0.924574	0.000000	
11.075770	-7.219610	-51.072809	1.096717	-2.882026	2.372771	-45.049303	-30.217866	0.000000	
7.928266	-7.739188	-54.692463	7.382883	-2.101410	1.830809	-31.076141	-143.741420	0.000000	
4.565732	-8.568002	-58.656835	13.581122	-1.109985	1.341239	-15.343386	-240.543787	0.000000	
5.536314	-8.203646	-57.450186	11.643970	-1.238265	1.432851	-16.934083	-211.504286	0.000000	
1.900851	-8.816706	-61.412976	18.920120	-0.060796	0.819341	-0.040685	-316.948153	0.000000	
3.012354	-8.670883	-60.726052	16.508541	-0.553871	1.034026	-7.124904	-280.677065	0.000000	
10.628814	-7.357305	-52.110687	2.431300	-2.694308	2.210080	-41.046701	-55.391018	0.000000	
3.536850	-8.711737	-59.692508	15.992239	-0.464622	1.000550	-5.246485	-276.911808	0.000000	
1.594436	-8.817876	-61.929752	19.005776	-0.151608	0.817880	-1.790902	-315.694323	0.000000	
6.734284	-8.015295	-56.417304	9.663640	-1.487546	1.667090	-20.456803	-180.072822	0.000000	
6.993115	-8.055860	-55.902129	8.931557	-1.701689	1.542078	-24.208955	-168.669739	0.000000	
3.097600	-8.672479	-59.861429	16.552530	-0.614546	1.018204	-8.150146	-285.455696	0.000000	
11.876427	-7.037471	-50.209864	-0.021415	-3.400693	2.588967	-55.245292	-8.250544	0.000000	
9.342461	-7.548503	-53.142555	4.972025	-2.352109	1.994348	-35.183879	-102.342758	0.000000	
4.212222	-8.572106	-58.827274	14.270175	-0.926208	1.323545	-12.514370	-251.566282	0.000000	
5.711646	-8.157702	-57.624774	11.514927	-1.328876	1.414489	-18.286875	-208.581848	0.000000	
1.325192	-8.911600	-61.409624	19.781487	0.002230	0.748064	0.459715	-331.078689	0.000000	
-0.399887	-9.413777	-64.690820	23.310523	0.470733	0.455669	6.142421	-369.315106	0.000000	
9.084554	-7.504473	-53.831899	4.885272	-2.443803	2.081978	-36.715575	-99.385161	0.000000	
12.183818	-6.812067	-49.864984	-0.624345	-3.070163	2.608014	-48.647553	4.042893	0.000000	
9.876548	-7.673693	-52.973315	3.765033	-2.386744	2.083277	-35.381880	-80.014817	0.000000	
5.183328	-8.118521	-58.139523	12.376019	-1.084133	1.414068	-14.432228	-221.515298	0.000000	
8.286631	-7.601503	-54.173496	6.349157	-2.015311	1.974884	-29.405818	-125.886255	0.000000	
1.143799	-8.958143	-62.102519	20.513602	-0.024164	0.621517	-0.143096	-339.224689	0.000000	
10.634833	-7.534334	-51.071155	1.828204	-2.789083	2.336989	-43.715304	-44.887475	0.000000	
11.960190	-6.946486	-50.384604	-0.194084	-3.158727	2.499264	-50.160774	-4.696392	0.000000	
7.174794	-7.703298	-55.379735	8.976256	-1.672025	1.741168	-23.710175	-170.703054	0.000000	
5.097726	-8.207214	-57.792503	12.074361	-1.207137	1.450096	-16.725644	-217.706962	0.000000	
7.571198	-7.742933	-54.517692	7.899740	-1.918381	1.742104	-28.183487	-153.684001	0.000000	
1.279775	-9.043442	-62.276474	20.038996	0.034515	0.674407	0.919840	-330.735321	0.000000	
-0.084600	-9.274065	-65.210646	22.189974	0.375823	0.561136	4.903028	-349.073866	0.000000	
9.967013	-7.496233	-52.625933	3.421240	-2.539864	2.155583	-38.423382	-73.815658	0.000000	
6.514243	-7.929015	-55.722339	9.491922	-1.580321	1.686358	-22.588630	-179.139990	0.000000	
6.862023	-8.014298	-55.726973	9.362459	-1.458528	1.596898	-20.051138	-176.887866	0.000000	
9.130005	-7.457904	-54.178103	4.669252	-2.232707	2.099184	-32.542577	-94.719835	0.000000	
6.418336	-8.149869	-56.591243	9.964680	-1.546594	1.469427	-21.753008	-184.974826	0.000000	
3.892575	-8.487311	-59.346823	15.218029	-0.830728	1.090368	-11.105070	-265.262345	0.000000	
9.789822	-7.144825	-52.795578	3.809867	-2.478106	2.173948	-37.321013	-80.568588	0.000000	
10.325465	-7.317115	-52.279476	2.905365	-2.753874	2.317416	-42.381675	-64.239570	0.000000	
2.832567	-8.453776	-60.377506	17.112628	-0.400666	1.017904	-4.791117	-292.096071	0.000000	
7.355307	-8.053810	-56.075117	8.673415	-1.884088	1.756504	-27.027066	-163.546356	0.000000	
6.149845	-8.244349	-56.070823	10.826819	-1.513436	1.417482	-21.624917	-202.154549	0.000000	
-3.324754	-9.663748	-68.482696	29.079487	1.582203	-0.014640	19.592285	-433.355736	0.000000	
10.630873	-7.092375	-51.242589	2.001668	-2.727572	2.301650	-42.375640	-47.641260	0.000000	
10.103000	-7.098775	-52.449923	3.422763	-2.600760	2.299945	-39.565247	-73.664486	0.000000	
4.473343	-8.610699	-59.004343	13.451165	-1.049509	1.214818	-14.320577	-236.969975	0.000000	
3.849201	-8.533806	-58.653506	15.433612	-0.588689	1.146134	-7.141932	-272.108292	0.000000	
4.783494	-8.211675	-58.137658	13.108069	-0.930442	1.342885	-12.174980	-234.203940	0.000000	
2.211292	-8.811227	-62.107990	18.273489	-0.273982	0.817045	-3.201088	-302.994118	0.000000	
9.657340	-7.721409	-53.144497	4.282127	-2.505982	2.100943	-37.745544	-89.540033	0.000000	
12.359908	-6.985316	-50.041167	-1.227988	-3.344202	2.552822	-53.757888	15.894486	0.000000	
9.565567	-7.545778	-52.450985	4.239731	-2.355610	2.067080	-35.465482	-89.717017	0.000000	
7.616965	-7.743453	-54.171077	7.856958	-1.918951	1.796660	-28.321911	-153.872938	0.000000	
7.879783	-7.785880	-53.827501	7.598776	-1.980052	1.779363	-29.358821	-150.097660	0.000000	
3.896185	-8.310927	-58.825123	14.960331	-0.863012	1.199070	-11.741942	-263.058675	0.000000	
2.793462	-8.673733	-60.723720	16.896218	-0.462171	1.070185	-5.817289	-287.074720	0.000000	
12.048824	-6.857817	-49.865058	-0.451913	-3.220702	2.536201	-51.818318	0.533445	0.000000	
10.059333	-7.273749	-52.450981	2.991066	-2.602640	2.263389	-39.647018	-65.619714	0.000000	
3.628834	-8.532269	-59.345132	15.088298	-0.831973	1.072072	-11.375698	-263.126337	0.000000	
6.998254	-7.745489	-56.071985	8.673682	-1.733502	1.667253	-24.700234	-163.251688	0.000000	
1.326230	-9.087037	-62.276529	19.823642	-0.147952	0.709793	-1.968252	-327.316267	0.000000	
-2.618651	-9.656855	-67.102910	27.529664	1.273464	0.041022	16.000767	-419.147810	0.000000	
8.638624	-7.774504	-53.485106	5.530621	-2.169669	1.957617	-32.290902	-112.373522	0.000000	
8.461564	-7.864880	-54.177016	6.176158	-2.045580	1.920658	-29.781487	-122.957678	0.000000	
5.712940	-8.072557	-56.757488	11.774530	-1.298554	1.506542	-18.018769	-216.246405	0.000000	
4.786757	-8.344330	-57.964440	12.935532	-1.022305	1.396573	-13.790656	-232.053208	0.000000	
5.837508	-8.026112	-56.587513	11.473184	-1.359492	1.345509	-19.023882	-211.522149	0.000000	
-2.398734	-9.347410	-66.063527	27.229851	1.241329	0.115437	15.965259	-420.928450	0.000000	
4.689930	-8.434576	-58.659266	13.710891	-1.078202	1.198369	-14.682159	-242.618467	0.000000	
11.958892	-7.077721	-50.732288	-0.195041	-2.976632	2.444693	-46.234501	-4.796053	0.000000	
11.074039	-7.265239	-50.900153	1.398383	-2.789998	2.355597	-43.393355	-36.294526	0.000000	
9.792296	-7.588865	-52.624131	4.196599	-2.355634	2.210038	-35.110094	-88.650825	0.000000	
9.835201	-7.630134	-52.279285	3.420916	-2.480009	2.156177	-37.669490	-74.437228	0.000000	
5.136405	-8.206752	-58.487038	12.461852	-1.204203	1.323461	-16.449095	-221.756139	0.000000	
2.479331	-8.454474	-61.587401	17.542245	-0.277476	0.943678	-3.034031	-293.350126	0.000000	
12.138893	-7.164675	-50.386929	-0.668696	-3.220892	2.516435	-51.193240	4.480158	0.000000	
8.858683	-7.597158	-53.138748	5.402523	-2.321306	1.994401	-35.117486	-110.502785	0.000000	
9.657715	-7.499611	-54.009301	4.626722	-2.261862	2.117740	-32.633418	-94.269202	0.000000	
9.165697	-7.370100	-54.180216	4.928441	-2.382003	1.938203	-35.259918	-99.409073	0.000000	
0.613939	-8.876375	-62.617053	21.848738	0.434421	0.621862	6.700468	-357.692879	0.000000	
-3.452458	-9.705226	-68.308264	28.088086	1.365392	0.020230	16.365426	-419.980709	0.000000	
10.013420	-7.229820	-52.624022	3.163314	-2.510969	2.227452	-37.826184	-68.632942	0.000000	
9.928946	-7.540484	-52.970509	3.420866	-2.570402	2.262124	-38.795384	-73.380583	0.000000	
10.897134	-7.178175	-51.071606	1.570824	-2.819770	2.337419	-44.027608	-39.456225	0.000000	
5.135085	-8.078045	-57.620046	12.980016	-1.021345	1.380169	-13.512533	-233.948053	0.000000	
5.360719	-8.249965	-57.968252	12.160581	-1.205787	1.431974	-16.399479	-218.578127	0.000000	
-1.731885	-9.515677	-66.241791	26.022915	1.086362	0.203441	14.145596	-401.720236	0.000000	
3.673602	-8.444280	-59.344551	15.217894	-0.801182	1.108228	-10.814629	-265.229503	0.000000	
10.545486	-7.401826	-51.935828	2.215723	-2.726274	2.299692	-41.887767	-51.472039	0.000000	
10.500528	-7.137359	-52.453457	2.560979	-2.754716	2.299139	-42.072495	-57.271347	0.000000	
9.259979	-7.813798	-53.315783	4.841867	-2.443812	2.064909	-36.878908	-99.850804	0.000000	
8.720912	-7.552060	-53.659356	5.488104	-2.199293	1.850034	-32.654623	-110.986306	0.000000	
-1.069103	-9.422746	-63.302188	24.129746	0.713904	0.334156	9.542705	-390.348207	0.000000	
7.703181	-7.870984	-55.732276	7.682884	-1.887433	1.667223	-26.898269	-146.590344	0.000000	
9.658309	-7.588392	-52.450724	3.937812	-2.296581	2.156418	-34.241016	-84.006814	0.000000	
7.485180	-7.788401	-55.036007	8.330119	-1.825693	1.777100	-26.329040	-160.110606	0.000000	
8.055817	-7.781282	-54.175757	6.995011	-1.951568	1.742269	-28.467074	-137.988685	0.000000	
7.571386	-7.698098	-54.690602	7.856563	-1.888190	1.741750	-27.544653	-152.365205	0.000000	
2.791353	-8.898002	-60.032560	17.327241	-0.430464	1.054039	-5.349003	-297.759919	0.000000	
5.049262	-8.298858	-57.966623	12.936058	-1.112229	1.378812	-15.087395	-232.009562	0.000000	
8.019152	-8.002607	-54.520969	7.080223	-1.891037	1.866642	-27.219309	-138.910830	0.000000	
10.496755	-7.094361	-51.588211	2.561499	-2.573782	2.265624	-39.261770	-58.181593	0.000000	
11.653527	-6.994326	-50.208639	0.150503	-3.128099	2.535597	-50.066493	-11.626574	0.000000	
2.390959	-8.809810	-61.588888	17.842952	-0.276197	0.907551	-3.093720	-298.549272	0.000000	
3.937850	-8.441882	-59.519844	15.045653	-0.861559	1.107766	-11.550395	-261.554666	0.000000	
3.191398	-8.848139	-58.822688	15.862950	-0.497724	1.145318	-6.204691	-278.926684	0.000000	
6.110862	-8.022727	-56.587219	10.783893	-1.513804	1.524002	-21.479917	-199.338847	0.000000	
12.142688	-6.854990	-49.864374	-1.012487	-3.102410	2.643330	-49.341110	11.778622	0.000000	
11.115724	-7.396119	-51.421757	1.354597	-2.849757	2.264510	-44.077811	-35.225922	0.000000	
8.809639	-7.685748	-54.006674	6.004818	-2.136026	1.867568	-31.186045	-119.984270	0.000000	
0.840402	-9.002518	-63.311298	20.856643	0.279732	0.672773	4.375755	-338.221166	0.000000	
3.624910	-8.400350	-60.211013	15.777601	-0.706925	0.999371	-9.150258	-270.679252	0.000000	
7.173181	-7.967450	-56.074728	9.104371	-1.730987	1.649556	-24.479174	-171.146463	0.000000	
8.552357	-7.864569	-54.176948	6.047253	-2.257864	1.974110	-33.605846	-120.578182	0.000000	
6.508620	-7.842898	-54.857290	9.622341	-1.670893	1.616914	-24.589221	-184.241390	0.000000	
5.269804	-8.340845	-57.622242	12.591320	-0.992503	1.397425	-12.880329	-227.449466	0.000000	
5.576507	-8.072864	-57.450366	12.204675	-1.114515	1.397937	-14.740751	-221.135714	0.000000	
6.684615	-7.796531	-55.897452	9.880391	-1.607840	1.597046	-22.841635	-185.398023	0.000000	
6.333498	-8.062031	-56.415960	9.792687	-1.638801	1.541302	-23.536939	-182.410983	0.000000	
6.596682	-7.751682	-56.242992	9.793968	-1.638372	1.578196	-23.336715	-182.682636	0.000000	
5.668015	-8.159454	-56.758332	11.386340	-1.390918	1.452149	-19.690243	-209.489758	0.000000	
8.813098	-7.553769	-53.658505	5.790259	-2.349385	1.957724	-35.355905	-116.620916	0.000000	
6.022344	-8.068529	-55.894059	10.826966	-1.272509	1.543735	-17.508377	-202.617434	0.000000	
10.320518	-7.359406	-52.108375	2.517321	-2.755216	2.191968	-42.549320	-57.046502	0.000000	
8.195113	-7.912884	-54.002404	6.693182	-1.983512	1.885564	-29.002725	-132.976598	0.000000	
6.027163	-8.287202	-57.452899	10.954584	-1.361474	1.557651	-18.598487	-199.576786	0.000000	
7.526272	-7.784423	-55.557280	7.855413	-1.796568	1.667912	-25.523654	-150.067517	0.000000	
7.799883	-7.781524	-55.556755	7.338340	-1.798949	1.864711	-25.290416	-140.758892	0.000000	
10.451883	-7.536217	-51.071672	2.172916	-2.787446	2.193884	-43.883810	-51.638681	0.000000	
7.127027	-7.966433	-55.728929	8.716563	-1.732895	1.596215	-24.706895	-165.243536	0.000000	
11.248313	-7.174805	-51.940566	1.656745	-2.847790	2.299834	-43.464316	-40.460290	0.000000	
8.590604	-7.731317	-53.485507	5.789325	-2.138099	1.886280	-31.750773	-117.164296	0.000000	
9.925977	-7.452240	-52.105027	3.076936	-2.602742	2.228106	-40.050586	-67.890217	0.000000	
3.014498	-8.758266	-61.072478	16.421788	-0.554043	1.050902	-7.089801	-277.749355	0.000000	
-0.719011	-9.199874	-62.957758	23.915617	0.592650	0.335214	7.985264	-388.879495	0.000000	
8.819928	-7.463082	-54.175735	5.488074	-2.199606	2.081897	-32.254106	-109.843482	0.000000	
11.388051	-7.349516	-51.248125	0.837931	-2.942949	2.443717	-45.744777	-25.209826	0.000000	
7.572922	-7.961493	-55.904212	8.070307	-1.825584	1.702867	-25.842359	-153.162956	0.000000	
7.268637	-7.700085	-55.379253	8.200543	-1.826846	1.829875	-26.410948	-156.694000	0.000000	
5.574809	-8.114337	-58.490534	12.160582	-1.113493	1.305787	-14.476767	-216.503532	0.000000	
2.924802	-8.584983	-61.070582	17.154958	-0.430126	1.069879	-5.143339	-289.604046	0.000000	
-1.109162	-9.418750	-65.206108	24.085012	0.745368	0.329597	9.689143	-378.284867	0.000000	
8.857668	-7.640852	-53.139457	5.273192	-2.412471	1.958277	-36.833687	-108.113663	0.000000	
8.106180	-7.822494	-54.694476	6.520320	-1.983756	1.830075	-28.741405	-128.051047	0.000000	
8.856633	-7.730208	-53.140131	5.531528	-2.350740	1.940550	-35.672656	-113.068058	0.000000	
8.950579	-7.551480	-53.311913	5.144069	-2.413116	2.065424	-36.631384	-105.250468	0.000000	
9.296742	-7.679506	-53.143887	4.626675	-2.353459	1.922113	-35.256693	-95.980123	0.000000	
-3.862963	-9.849311	-67.789134	30.243079	1.586103	-0.191635	19.412855	-455.099611	0.000000	
7.219296	-7.921386	-55.728183	8.501368	-1.824728	1.685609	-26.262176	-161.338858	0.000000	
11.779471	-7.124972	-51.251319	0.580290	-2.972950	2.372378	-45.898836	-19.935477	0.000000	
10.544941	-7.534231	-52.283191	2.344455	-2.755504	2.262936	-42.174363	-53.739753	0.000000	
11.697615	-7.123469	-50.902926	-0.152344	-3.037783	2.479838	-47.571470	-5.671919	0.000000	
6.546187	-7.976167	-55.552731	10.354126	-1.515096	1.472669	-21.448826	-195.252522	0.000000	
-2.477871	-9.787988	-65.890389	26.496070	1.025535	0.221657	12.666836	-411.271160	0.000000	
-0.847993	-9.418132	-65.035654	24.214745	0.746702	0.294491	9.962432	-381.268473	0.000000	
7.221138	-7.790782	-55.380059	8.803550	-1.642563	1.776759	-23.131084	-167.672134	0.000000	
8.814640	-7.504816	-54.177996	5.056821	-2.231173	1.938047	-32.840920	-101.922221	0.000000	
12.359133	-7.120241	-50.214908	-0.538962	-3.159491	2.553091	-49.897056	1.964367	0.000000	
9.969937	-7.318958	-52.797184	3.335388	-2.540425	2.227015	-38.308820	-71.764401	0.000000	
2.827405	-8.408107	-61.244814	17.241614	-0.550036	0.872559	-7.178058	-290.035343	0.000000	
1.328318	-9.040782	-62.795439	19.607732	-0.118326	0.726362	-1.484843	-321.138582	0.000000	
4.516980	-8.613234	-57.619051	13.409119	-0.990421	1.271904	-13.577954	-241.920481	0.000000	
8.596292	-7.864498	-53.830882	6.004171	-2.076800	1.993030	-30.407461	-120.547735	0.000000	
10.635875	-7.358124	-51.415965	2.044153	-2.878753	2.372381	-45.170278	-48.599642	0.000000	
11.294022	-7.082731	-51.247876	0.493700	-2.974485	2.318272	-46.463299	-18.200875	0.000000	
7.838668	-7.829365	-53.999971	7.383050	-2.071886	1.814374	-31.010916	-145.671114	0.000000	
-0.490584	-9.101621	-65.728325	23.267007	0.683130	0.382133	9.187059	-362.569869	0.000000	
-1.024378	-9.420976	-64.341482	24.301361	0.745956	0.314011	9.912998	-386.721832	0.000000	
-1.729144	-9.335402	-67.106269	25.591725	0.994303	0.219044	12.583682	-389.979444	0.000000	
11.600190	-6.994089	-50.384167	0.408673	-2.944529	2.338538	-46.310808	-16.712665	0.000000	
11.694531	-7.215134	-50.038016	0.235981	-2.945830	2.464325	-46.545935	-13.619304	0.000000	
8.993815	-7.947381	-53.488406	4.970179	-2.292294	1.992743	-34.208911	-102.070171	0.000000	
4.732487	-7.950127	-57.271346	13.497767	-1.020003	1.273933	-13.960991	-244.282500	0.000000	
-0.579160	-9.461617	-63.997606	23.655592	0.531863	0.421698	7.015507	-378.740532	0.000000	
-1.068159	-9.419107	-64.860964	24.042401	0.624256	0.276530	7.913101	-379.636865	0.000000	
2.083174	-8.811964	-61.932595	18.230062	-0.063328	0.907126	0.077347	-303.149382	0.000000	
10.048319	-7.321373	-51.588081	3.551989	-2.539592	2.086843	-39.086850	-77.628619	0.000000	
10.279144	-7.448263	-52.627092	2.947184	-2.390246	2.245137	-35.246790	-64.755061	0.000000	
9.306682	-7.722998	-53.315054	4.410735	-2.264356	2.118588	-33.464305	-91.670093	0.000000	
4.154314	-8.575771	-58.137677	15.046358	-0.710726	1.093255	-9.002959	-267.894893	0.000000	
0.972207	-9.044854	-63.139749	20.468946	0.157326	0.654780	2.568253	-333.035221	0.000000	
3.718885	-8.311864	-59.170409	15.218365	-0.740939	1.162681	-9.783065	-265.890107	0.000000	
9.076555	-7.640015	-53.314964	5.574632	-2.138136	1.958613	-31.339105	-113.413507	0.000000	
10.282217	-7.357557	-52.626159	2.258047	-2.665706	2.280123	-40.478408	-51.564542	0.000000	
10.632431	-7.445078	-52.110368	2.172569	-2.816667	2.263305	-43.391126	-50.520803	0.000000	
6.295310	-7.709126	-56.930960	10.094772	-1.456383	1.702306	-20.164590	-185.726599	0.000000	
-0.492590	-9.327217	-64.344407	23.526521	0.471456	0.385114	6.110137	-374.580463	0.000000	
-0.672757	-9.151341	-64.862461	24.000190	0.776248	0.313159	10.598236	-378.745709	0.000000	
7.575652	-7.739713	-55.555901	7.597210	-1.979534	1.775106	-28.767774	-145.378433	0.000000	
8.506684	-7.687751	-54.175980	6.047609	-2.197435	1.956495	-32.538323	-120.403763	0.000000	
10.457006	-7.091824	-51.933397	2.086832	-2.515471	2.318113	-37.926178	-48.657625	0.000000	
6.996221	-8.012607	-55.554443	8.931882	-1.641850	1.632609	-23.275288	-169.682433	0.000000	
3.625091	-8.315579	-58.651316	15.865107	-0.556939	1.093027	-6.815235	-279.266603	0.000000	
4.963196	-8.474578	-57.793510	12.633375	-0.841793	1.396804	-10.534431	-227.635350	0.000000	
9.258316	-7.546665	-53.834345	4.712801	-2.413598	2.028151	-35.971755	-96.220920	0.000000	
7.928478	-7.695434	-54.172467	7.339929	-1.860193	1.868157	-26.913911	-144.275143	0.000000	
9.792154	-7.583689	-54.010876	3.721354	-2.447001	2.116606	-35.920639	-77.591109	0.000000	
11.510061	-6.950961	-51.076369	0.882502	-3.002382	2.283559	-46.925546	-25.726673	0.000000	
10.501270	-7.093535	-51.933419	2.389022	-2.725809	2.336130	-41.928484	-54.478244	0.000000	
5.178942	-8.251298	-58.314771	12.591054	-1.082572	1.306179	-14.368670	-224.667282	0.000000	
3.764574	-8.445448	-59.344017	15.562721	-0.678779	1.198339	-8.666111	-271.043639	0.000000	
2.608567	-8.498595	-61.243180	17.456627	-0.489270	0.890465	-6.386499	-293.636776	0.000000	
2.654947	-8.497877	-60.723476	17.026051	-0.552204	0.944982	-7.427975	-289.051483	0.000000	
8.014635	-7.604216	-54.346665	6.952084	-1.861318	1.813811	-26.761918	-136.584621	0.000000	
9.657325	-7.498371	-53.836647	4.109928	-2.627129	2.081415	-39.520679	-84.968328	0.000000	
5.893150	-8.068781	-57.450694	11.429194	-1.269012	1.558460	-17.120642	-207.632265	0.000000	
-0.887314	-9.327668	-65.206999	23.654534	0.622921	0.365158	8.002076	-371.599639	0.000000	
10.445581	-7.318146	-51.244647	3.078500	-2.601508	2.123238	-40.116802	-68.900129	0.000000	
5.357367	-8.162232	-57.275889	12.075004	-1.115845	1.397932	-15.021156	-219.630456	0.000000	
6.379557	-7.929561	-57.280477	10.309553	-1.484673	1.593902	-20.457707	-188.563846	0.000000	
9.561801	-7.459309	-51.931691	4.499115	-2.294238	2.032936	-34.634540	-95.507308	0.000000	
10.902231	-7.309264	-51.244403	1.225458	-2.851702	2.408095	-44.499350	-32.729861	0.000000	
7.790338	-7.433443	-53.997915	7.944131	-1.767000	1.797910	-25.416031	-155.656016	0.000000	
9.614808	-7.497742	-52.623317	3.420697	-2.419795	2.137551	-36.519127	-73.810562	0.000000	
9.699405	-7.366301	-53.317042	4.110569	-2.506445	2.083008	-37.590357	-85.661501	0.000000	
5.479664	-8.029945	-57.624996	12.635681	-1.111960	1.218805	-14.748420	-227.905746	0.000000	
5.091242	-8.517993	-57.622910	12.504496	-1.053490	1.307307	-14.112441	-226.112566	0.000000	
5.135289	-8.297838	-57.275408	12.462627	-1.235492	1.344085	-17.327802	-226.532843	0.000000	
9.435571	-7.365410	-54.007891	4.066291	-2.294944	2.045535	-33.477583	-83.755379	0.000000	
8.376524	-7.643510	-54.693758	6.090355	-2.227525	1.973162	-32.921420	-120.007776	0.000000	
7.970051	-8.002967	-54.522095	7.209500	-1.890136	1.759247	-27.252779	-141.279443	0.000000	
3.227990	-8.936115	-60.037936	16.465623	-0.674589	0.945674	-9.006716	-283.417715	0.000000	
5.133589	-7.987753	-57.447060	12.549155	-0.962770	1.344520	-12.532673	-227.061741	0.000000	
4.695338	-8.391109	-58.137752	13.581877	-0.928561	1.343027	-12.227677	-242.526484	0.000000	
7.528662	-7.652981	-55.728702	8.114401	-1.825835	1.739643	-25.970329	-154.123367	0.000000	
7.974835	-7.606324	-53.652115	6.995544	-1.741341	1.941004	-24.903589	-139.154482	0.000000	
7.933167	-7.869614	-54.519082	6.778962	-2.044031	1.902148	-30.114962	-133.252936	0.000000	
-0.312478	-9.058338	-64.516478	22.923721	0.469005	0.474205	6.210384	-364.006402	0.000000	
3.936720	-8.532407	-58.135133	14.874012	-0.833262	1.128696	-11.321094	-264.900146	0.000000	
9.875102	-7.495480	-53.146056	3.506894	-2.508614	2.046915	-37.564096	-74.712077	0.000000	
10.986262	-7.134257	-51.071578	1.657419	-2.910033	2.373365	-45.697093	-41.103546	0.000000	
11.343133	-7.438115	-51.421798	0.923769	-2.972639	2.407364	-46.219342	-26.893388	0.000000	
11.478357	-7.082498	-50.727241	0.192628	-3.037161	2.516333	-47.963767	-12.443967	0.000000	
1.723802	-8.686514	-60.718179	18.963851	0.028996	0.839116	1.283080	-321.165598	0.000000	
0.083829	-9.096970	-64.693584	22.105148	0.164293	0.437037	1.824858	-350.392544	0.000000	
7.127809	-7.835002	-55.554424	8.932419	-1.581073	1.650949	-22.048383	-169.512767	0.000000	
8.768194	-7.729608	-53.486491	5.616950	-2.078023	1.922129	-30.440724	-113.937585	0.000000	
10.012622	-7.318358	-52.971147	3.335382	-2.600506	2.190740	-39.274616	-71.530634	0.000000	
10.277542	-7.538898	-52.108365	3.120097	-2.571298	2.228295	-39.066072	-68.807523	0.000000	
6.601714	-8.146871	-56.590767	9.404298	-1.488696	1.612384	-20.548282	-175.071036	0.000000	
-1.331981	-9.203655	-64.856652	25.034028	0.869588	0.349583	11.468133	-394.765178	0.000000	
3.815339	-8.349494	-60.901548	14.527315	-0.863655	1.229416	-11.453498	-247.042883	0.000000	
4.070121	-8.308136	-58.827370	14.615527	-0.833579	1.145138	-11.075300	-257.184707	0.000000	
3.720583	-8.355031	-60.728655	15.820253	-0.525257	1.159745	-5.999114	-269.039417	0.000000	
9.795282	-7.538749	-54.529256	3.764139	-2.416372	2.169262	-35.021723	-77.599616	0.000000	
11.653375	-7.123237	-52.287937	0.449999	-2.973363	2.441354	-45.147700	-17.062701	0.000000	
9.397962	-7.675659	-54.527092	4.280742	-2.415025	2.133465	-35.407224	-87.217792	0.000000	
1.149768	-9.130026	-62.795423	19.650409	-0.118325	0.654486	-1.644360	-321.898013	0.000000	
3.366667	-8.535686	-60.207963	15.949497	-0.737587	1.106616	-9.900614	-273.674087	0.000000	
6.645389	-7.928705	-56.242985	9.836547	-1.577917	1.667646	-22.213243	-183.616323	0.000000	
11.432052	-6.948763	-52.112130	0.665898	-2.912686	2.442156	-44.371298	-21.072635	0.000000	
8.948281	-7.459235	-54.351498	4.970667	-2.200950	1.973574	-32.044579	-99.967271	0.000000	
9.609152	-7.413611	-52.969977	4.584929	-2.444285	2.066323	-36.753599	-95.222821	0.000000	
6.552331	-7.972047	-56.071145	9.577760	-1.578931	1.542263	-22.390110	-179.604595	0.000000	
6.026244	-8.198854	-57.279380	10.954778	-1.240632	1.558326	-16.543641	-200.095762	0.000000	
6.283980	-8.201749	-55.724192	11.129075	-1.451879	1.508404	-20.514800	-208.788249	0.000000	
5.937025	-8.289438	-56.067291	10.739939	-1.303304	1.560727	-18.091354	-200.662798	0.000000	
8.549963	-7.468203	-54.174744	6.479187	-2.044322	1.993281	-29.667935	-128.145518	0.000000	
-5.848531	-10.267030	-70.200414	33.901928	2.204444	-0.356330	25.940235	-491.949455	0.000000	
9.968783	-7.406378	-53.144591	3.291831	-2.600600	2.172206	-39.197065	-70.573291	0.000000	
11.474389	-7.217456	-50.555713	0.666734	-3.095371	2.445287	-49.279620	-22.011094	0.000000	
3.053436	-8.760371	-59.688670	16.336750	-0.585441	1.000354	-7.725342	-282.747085	0.000000	
-4.926314	-10.124936	-69.688597	32.524440	1.898154	-0.391773	22.483919	-475.675792	0.000000	
10.234333	-7.670365	-51.762509	2.731682	-2.422180	2.228664	-36.487869	-61.900555	0.000000	
7.393843	-7.743872	-55.036104	8.286833	-1.704849	1.705475	-24.226391	-159.278423	0.000000	
6.555307	-8.151656	-56.244067	10.223806	-1.545944	1.613921	-21.734227	-190.720550	0.000000	
8.247527	-7.867461	-54.346530	6.434566	-2.075681	2.045724	-30.465904	-127.334190	0.000000	
9.434198	-7.367678	-53.315372	4.153368	-2.476603	2.047067	-37.310888	-86.468362	0.000000	
12.713497	-6.984629	-49.523723	-1.270325	-3.344115	2.625921	-53.908982	16.924709	0.000000	
7.751840	-8.092498	-55.213128	7.467312	-1.979783	1.757474	-28.766942	-144.281771	0.000000	
11.385154	-7.038901	-51.766681	0.838475	-3.002831	2.389140	-46.454338	-24.639281	0.000000	
3.718885	-8.492141	-59.344066	16.079924	-0.676519	1.180839	-8.671216	-279.802881	0.000000	
2.526346	-8.850049	-61.589770	17.066951	-0.309675	0.942606	-3.513912	-285.982156	0.000000	
2.570716	-8.722394	-60.203012	17.499601	-0.278957	1.054075	-3.025131	-299.618493	0.000000	
-6.823268	-10.579963	-72.275042	34.803588	2.329552	-0.630109	26.147322	-490.569892	0.000000	
4.869298	-8.035013	-57.271963	12.850663	-0.932060	1.345011	-12.291288	-233.064248	0.000000	
-1.103838	-9.552234	-64.858837	24.127667	0.986751	0.455930	13.471510	-381.079086	0.000000	
-2.927018	-9.792392	-68.140158	28.390241	1.398423	0.003295	17.325157	-425.520925	0.000000	
11.342955	-7.129336	-50.727102	0.752607	-2.883476	2.463146	-45.084019	-23.534861	0.000000	
10.637530	-7.533198	-52.282668	2.086019	-2.847525	2.352220	-43.835464	-48.796133	0.000000	
9.215090	-7.548709	-52.794012	4.584260	-2.415360	2.084203	-36.744395	-95.668396	0.000000	
11.877062	-7.078258	-50.383577	-0.539495	-3.130553	2.570355	-49.695150	2.012409	0.000000	
11.782201	-6.947449	-51.076363	0.279143	-2.974750	2.444418	-46.085606	-13.909951	0.000000	
7.218893	-7.789026	-55.381073	8.415698	-1.764983	1.704526	-25.343458	-160.663973	0.000000	
10.986604	-7.398780	-51.765852	1.914597	-2.787158	2.335879	-42.720730	-45.817999	0.000000	
4.873204	-8.478852	-57.619765	13.237697	-1.172139	1.379477	-16.384659	-238.811579	0.000000	
-1.512354	-9.424394	-64.858107	24.989748	1.081175	0.223904	14.574118	-394.264571	0.000000	
3.673227	-8.577926	-59.864761	15.734375	-0.737876	1.089458	-9.670357	-271.684516	0.000000	
0.922285	-8.784014	-62.446066	21.159888	0.250585	0.621742	4.054114	-347.555972	0.000000	
7.130837	-8.099628	-55.901693	8.888426	-1.671779	1.667502	-23.535860	-167.943417	0.000000	
8.643596	-7.687838	-53.829100	5.961766	-2.168001	2.082764	-32.053398	-119.579776	0.000000	
8.194706	-7.687961	-55.387008	6.520226	-1.982962	1.828694	-28.287865	-126.322132	0.000000	
11.116441	-7.089041	-50.553396	1.399302	-2.850664	2.356650	-44.838574	-36.360516	0.000000	
6.955729	-8.099200	-56.939190	9.145908	-1.549223	1.647386	-21.141512	-169.419741	0.000000	
11.613556	-7.213011	-51.767383	0.277976	-3.156620	2.531632	-49.176929	-14.000413	0.000000	
6.110667	-7.978402	-56.933248	10.999069	-1.361331	1.523624	-18.676242	-201.868013	0.000000	
9.476457	-7.501982	-52.104072	4.067634	-2.387084	2.049787	-36.396379	-86.958843	0.000000	
11.343599	-7.172783	-51.766233	1.096512	-2.850776	2.443075	-43.562447	-29.769263	0.000000	
9.838015	-7.231998	-52.622294	3.421832	-2.510389	2.245500	-38.003405	-73.550212	0.000000	
9.131013	-7.590447	-53.659197	4.410562	-2.204093	2.117908	-32.315349	-90.945559	0.000000	
5.571158	-8.294506	-57.280075	12.376619	-1.113342	1.272778	-14.766988	-225.009653	0.000000	
3.859024	-8.574446	-59.517343	14.872432	-0.651579	1.286716	-8.097110	-258.780157	0.000000	
3.759250	-8.529797	-60.039460	15.130779	-0.709635	1.016949	-9.093750	-260.798059	0.000000	
1.720495	-8.774635	-61.585436	19.479969	0.213866	0.748061	4.252758	-325.115140	0.000000	
3.109209	-8.800714	-60.725468	15.775579	-0.708711	1.176322	-9.585321	-268.729635	0.000000	
0.792390	-9.005523	-62.792263	21.202165	0.129713	0.620407	1.986401	-346.515457	0.000000	
-2.262132	-9.699355	-65.719393	26.712139	1.087690	0.168888	13.831799	-415.551206	0.000000	
-0.976622	-9.375154	-65.206448	24.343961	0.746741	0.365844	9.824190	-382.216614	0.000000	
9.570928	-7.591739	-52.968950	4.670785	-2.535199	2.173505	-38.511162	-97.034197	0.000000	
12.050540	-7.164561	-50.559586	-0.669022	-3.160432	2.498112	-49.923340	4.468668	0.000000	
10.144168	-7.227252	-53.318868	3.119760	-2.510005	2.172112	-37.187835	-66.929572	0.000000	
11.117314	-7.044403	-50.726059	1.399194	-2.790109	2.374287	-43.493891	-36.188026	0.000000	
7.135730	-8.141765	-55.727829	8.198866	-1.826525	1.738717	-26.378734	-156.133563	0.000000	
12.229799	-6.854812	-50.038434	-0.883103	-3.161865	2.625129	-50.262730	9.149320	0.000000	
11.076857	-7.441417	-50.554312	1.010284	-2.882882	2.391500	-45.518996	-29.055910	0.000000	
11.432312	-7.127791	-51.420248	0.752381	-3.034002	2.461402	-47.316757	-23.222488	0.000000	
8.728198	-7.508578	-53.310452	5.402073	-2.049470	2.030154	-30.045132	-110.047838	0.000000	
6.285731	-7.975254	-57.108368	10.654081	-1.301586	1.487230	-17.403219	-195.207458	0.000000	
0.044122	-9.099107	-64.345265	22.363757	0.376252	0.563720	5.098466	-356.305860	0.000000	
2.484568	-8.941054	-61.242596	17.411722	-0.218089	1.015364	-2.072183	-293.311695	0.000000	
5.714183	-8.467835	-57.452698	11.600282	-1.238008	1.450447	-16.755207	-210.992659	0.000000	
1.014870	-9.049476	-61.927519	20.987202	0.249299	0.712043	4.157768	-347.911411	0.000000	
2.617522	-8.807076	-62.627873	17.842455	-0.335682	1.012668	-3.802290	-293.599489	0.000000	
7.352323	-7.658070	-54.168420	8.201914	-1.948417	1.796917	-29.141352	-160.160221	0.000000	
-5.142434	-10.034216	-69.859025	31.748427	1.803311	-0.357242	20.895936	-463.336187	0.000000	
5.140329	-8.299238	-57.100532	12.592089	-1.205331	1.470065	-16.845291	-229.492757	0.000000	
4.302035	-8.215062	-59.518262	13.925749	-0.896874	1.358019	-11.800699	-242.531625	0.000000	
11.521307	-7.391209	-51.595682	0.579019	-2.973693	2.442632	-45.892886	-20.072727	0.000000	
11.959269	-6.948851	-49.691865	-0.021018	-3.188839	2.518961	-51.456071	-8.235999	0.000000	
8.729997	-7.596041	-54.176438	5.573635	-2.078244	2.028105	-30.106708	-111.559073	0.000000	
9.438209	-7.680127	-53.315606	4.799170	-2.353074	2.136950	-34.989575	-98.909621	0.000000	
7.177429	-7.880011	-55.206994	8.803542	-1.733561	1.776907	-24.893861	-168.285751	0.000000	
5.760655	-8.335845	-57.797610	11.902191	-1.206324	1.521850	-16.066609	-214.833818	0.000000	
5.883701	-7.804832	-56.932036	11.645805	-1.207402	1.417048	-16.196573	-213.061021	0.000000	
11.695560	-7.169930	-51.076655	0.365050	-3.216669	2.443847	-50.916910	-15.836202	0.000000	
8.589600	-7.998404	-53.833481	6.391893	-2.134955	1.849827	-31.493283	-127.883764	0.000000	
5.133644	-8.164906	-57.967691	12.764192	-1.203205	1.307143	-16.574876	-228.910785	0.000000	
9.844072	-7.318933	-52.794592	2.990609	-2.694022	2.333910	-41.353763	-65.237285	0.000000	
10.581332	-7.272650	-51.590731	2.992409	-2.692286	2.194054	-41.464906	-66.725176	0.000000	
9.219590	-7.502830	-53.658945	4.626576	-2.263536	2.154083	-33.330671	-94.880057	0.000000	
9.565440	-7.677926	-53.491353	4.712713	-2.231507	2.029184	-32.471091	-96.968737	0.000000	
9.214841	-7.636042	-53.834196	4.970858	-2.200903	2.046387	-32.066242	-101.107890	0.000000	
12.096943	-6.988035	-50.038513	-0.840598	-3.101389	2.589113	-49.203043	8.150480	0.000000	
5.043038	-8.032743	-57.966847	12.893525	-1.021256	1.271775	-13.523951	-231.017327	0.000000	
7.303815	-7.923720	-54.170917	8.502412	-1.644248	1.689563	-23.575286	-165.975249	0.000000	
-0.579949	-9.237484	-64.862653	23.482813	0.683158	0.384139	9.243298	-370.842611	0.000000	
-3.903321	-9.714563	-67.960512	29.682989	1.462393	-0.138817	17.508272	-445.601381	0.000000	
5.401781	-8.426472	-57.970514	12.289209	-1.053533	1.360368	-13.732714	-220.959310	0.000000	
0.705592	-8.783946	-63.136226	21.202142	0.311058	0.655884	4.766426	-344.434804	0.000000	
-0.666799	-9.460533	-64.170094	23.568602	0.864092	0.421499	12.095221	-376.368105	0.000000	
4.116511	-8.395428	-59.000824	14.528765	-0.712850	1.180501	-8.954720	-255.043500	0.000000	
4.608352	-8.303750	-58.136092	13.711295	-0.867896	1.379122	-11.268464	-244.675193	0.000000	
5.049763	-8.208696	-57.793105	12.419219	-1.205426	1.378745	-16.742426	-223.673250	0.000000	
8.765393	-7.334696	-53.311101	6.178708	-2.075777	1.941611	-30.499094	-124.431469	0.000000	
10.765774	-7.181567	-50.550418	1.958911	-2.667819	2.392852	-41.613299	-47.535632	0.000000	
11.081750	-7.176518	-51.070580	1.226168	-2.851804	2.516322	-44.452899	-32.706559	0.000000	
8.097695	-7.650236	-54.002340	7.383404	-1.828876	1.743426	-26.240472	-145.485202	0.000000	
1.857386	-9.125760	-61.414628	18.746930	-0.182501	0.782711	-2.062102	-314.401994	0.000000	
12.359453	-6.987927	-49.521317	-0.839776	-3.191803	2.590433	-51.237009	8.227618	0.000000	
7.399508	-7.744819	-55.207446	8.459179	-1.704464	1.830699	-24.140923	-161.909371	0.000000	
11.167207	-7.175670	-50.552697	0.838970	-3.065305	2.463256	-49.028723	-25.373046	0.000000	
11.610136	-6.861165	-50.207399	-0.021668	-3.098832	2.553543	-49.533278	-8.048834	0.000000	
7.049215	-8.189118	-55.899642	8.888165	-1.702791	1.792738	-24.173399	-168.034716	0.000000	
9.792016	-7.364425	-52.104016	3.120066	-2.542287	2.192423	-39.035335	-68.624721	0.000000	
11.257525	-7.219683	-50.552900	0.881960	-3.004495	2.517106	-47.725372	-26.272194	0.000000	
5.669839	-8.204468	-58.316265	12.333294	-1.264517	1.467372	-17.015980	-220.196449	0.000000	
6.375951	-7.710602	-55.721377	10.052742	-1.487101	1.597675	-21.055296	-188.987847	0.000000	
4.873106	-8.651703	-58.141056	12.676092	-1.143656	1.305793	-15.755018	-227.185143	0.000000	
1.150071	-8.825723	-62.619215	20.728969	0.097594	0.764152	1.801635	-339.752983	0.000000	
7.976024	-8.092864	-54.693849	7.467923	-1.949854	1.884302	-28.255396	-145.655461	0.000000	
2.873350	-8.586947	-60.033253	17.112801	-0.551746	0.946731	-7.292570	-293.893754	0.000000	
-1.865056	-9.341110	-65.027755	25.679687	0.871651	0.223835	11.007649	-403.776175	0.000000	
4.431732	-8.656663	-59.695873	14.140042	-0.894984	1.267671	-11.614378	-245.817258	0.000000	
7.044073	-7.925457	-55.725959	9.276879	-1.580011	1.740318	-22.048193	-175.265882	0.000000	
4.293140	-8.305060	-59.001608	14.270553	-0.743836	1.198384	-9.311804	-250.577832	0.000000	
11.384893	-6.950867	-51.246667	0.666688	-3.004101	2.408250	-46.942798	-21.432504	0.000000	
8.861864	-7.598084	-52.618174	5.316632	-2.261987	2.085190	-34.326389	-109.956654	0.000000	
8.017472	-8.001953	-55.041044	7.209187	-1.920065	1.811759	-27.498672	-139.948340	0.000000	
3.723004	-8.442420	-59.689917	14.915925	-0.832745	1.196683	-11.238957	-258.638888	0.000000	
3.010460	-8.538902	-60.206100	16.509041	-0.372816	1.035654	-4.174154	-282.979335	0.000000	
8.770919	-7.641824	-54.177695	5.961767	-2.197151	1.974577	-32.258421	-118.767974	0.000000	
-0.673297	-9.287340	-63.650795	24.173204	0.806151	0.351869	11.284305	-388.778168	0.000000	
0.135710	-9.141782	-63.825913	21.803575	0.343042	0.636021	4.706552	-350.459315	0.000000	
9.969570	-7.364106	-52.451147	3.335687	-2.631442	2.227672	-40.292029	-72.286486	0.000000	
3.009771	-8.630749	-59.340620	16.725452	-0.614599	1.055443	-8.298693	-290.828489	0.000000	
10.944844	-7.354741	-51.591427	1.785438	-2.757979	2.389976	-42.342345	-43.418749	0.000000	
11.297251	-6.998859	-50.552932	1.097995	-2.882216	2.464068	-45.262422	-30.300522	0.000000	
11.169027	-7.441870	-51.073084	1.354938	-2.911299	2.480216	-45.519775	-35.517782	0.000000	
11.513554	-7.128475	-50.730029	0.839083	-2.942640	2.355798	-46.059029	-25.237222	0.000000	
10.990088	-7.133325	-51.070613	1.398698	-2.881237	2.444803	-45.129900	-36.037349	0.000000	
8.155632	-7.823888	-55.039265	6.908192	-2.012394	1.955045	-29.036198	-134.302586	0.000000	
7.215260	-7.658773	-55.553983	9.105613	-1.670889	1.669266	-23.576968	-172.453711	0.000000	
3.589369	-8.531208	-59.343602	14.829246	-0.621891	1.161590	-7.873198	-258.766813	0.000000	
3.802965	-8.619110	-59.520873	15.045052	-0.891790	1.017797	-12.185263	-261.707135	0.000000	
0.790289	-8.873277	-62.445642	21.159651	0.159552	0.603503	2.477748	-347.634732	0.000000	
0.353151	-9.097937	-62.962135	21.632539	0.100290	0.619948	1.120164	-352.500540	0.000000	
-1.336810	-9.247602	-65.031494	25.206053	0.961692	0.241882	12.847305	-396.389180	0.000000	
4.699373	-8.433038	-59.003049	13.408704	-0.989273	1.376501	-13.085031	-236.086571	0.000000	
3.233043	-8.534778	-60.034554	15.561464	-0.739605	1.052803	-10.085440	-267.997894	0.000000	
7.042662	-7.835650	-55.379811	8.760268	-1.733692	1.704710	-24.957547	-166.936795	0.000000	
11.648985	-7.037040	-50.556835	0.063941	-3.188172	2.409150	-50.920368	-9.887329	0.000000	
5.005507	-8.124495	-57.618381	13.238693	-1.081280	1.433947	-14.679295	-238.489505	0.000000	
6.953530	-7.791235	-55.898721	8.932194	-1.641867	1.667921	-23.179928	-168.425752	0.000000	
8.679869	-7.732362	-53.658773	6.091326	-2.287752	1.921898	-34.346439	-122.417852	0.000000	
11.117325	-7.176489	-50.726981	1.312537	-2.760158	2.356119	-42.902677	-34.625182	0.000000	
10.894509	-7.311619	-51.592548	2.044325	-2.847174	2.264762	-44.125022	-48.388860	0.000000	
7.971466	-7.826974	-54.693563	7.425446	-1.889277	1.813063	-27.152648	-144.606808	0.000000	
-1.017401	-9.415882	-66.071909	23.868984	0.654461	0.363124	8.253904	-370.066489	0.000000	
7.750337	-7.563780	-55.036647	7.813636	-1.827422	1.812936	-26.089836	-150.495417	0.000000	
8.857438	-7.774392	-53.140126	5.574327	-2.229629	1.958572	-33.392707	-113.920114	0.000000	
8.997082	-7.770028	-53.139556	4.626012	-2.264253	2.083100	-33.897188	-96.070981	0.000000	
11.069628	-7.134761	-50.727079	1.830079	-2.818252	2.302856	-44.100573	-44.781445	0.000000	
8.643162	-7.730401	-54.522319	6.047014	-1.985420	2.045505	-28.307582	-119.677072	0.000000	
3.007464	-8.980171	-61.075784	16.766044	-0.551812	0.889672	-7.059395	-283.574757	0.000000	
6.775491	-7.838614	-56.590395	9.879561	-1.455941	1.631393	-19.797297	-183.164849	0.000000	
3.189024	-8.802841	-59.515912	15.991896	-0.526543	1.072176	-6.628049	-277.811172	0.000000	
8.779351	-7.641705	-53.828986	5.574151	-2.260402	2.154103	-33.628536	-112.331086	0.000000	
9.219571	-7.592983	-52.966104	4.627033	-2.354903	2.173411	-35.481392	-96.214650	0.000000	
4.472253	-8.348451	-58.136683	13.668194	-1.049495	1.271232	-14.523355	-243.974495	0.000000	
8.021787	-7.693339	-54.518195	7.038004	-1.891632	1.956643	-27.228860	-137.825154	0.000000	
9.437095	-7.765933	-52.970097	4.109219	-2.356196	2.083209	-35.272777	-86.615077	0.000000	
7.525614	-7.743670	-54.517616	8.157991	-1.675297	1.724675	-23.771633	-158.421987	0.000000	
5.581931	-8.204775	-57.276663	11.816622	-1.237735	1.487210	-16.929069	-215.158048	0.000000	
-3.508035	-9.800928	-67.271750	29.295896	1.309998	-0.137577	15.759917	-444.473206	0.000000	
5.534120	-8.027709	-57.449541	11.860039	-1.237246	1.415416	-16.918674	-215.095846	0.000000	
10.990058	-7.310967	-50.379026	1.226393	-2.943042	2.445943	-46.965443	-33.298568	0.000000	
8.195431	-7.734008	-54.867346	6.606901	-2.073884	1.865678	-30.204708	-129.137668	0.000000	
7.307325	-7.965214	-55.382705	8.458155	-1.613287	1.704527	-22.514098	-161.604374	0.000000	
1.237567	-8.909005	-62.621460	19.694235	-0.027451	0.691263	-0.116907	-323.291823	0.000000	
2.032978	-8.860087	-61.241153	18.748000	-0.182316	0.819476	-1.901829	-315.064344	0.000000	
8.505719	-7.776204	-53.830469	5.961257	-2.107273	1.939280	-31.068184	-119.659420	0.000000	
10.801643	-7.271802	-50.380260	2.390245	-2.846716	2.232153	-45.262182	-56.355509	0.000000	
9.167460	-7.594220	-52.275298	4.713597	-2.263860	2.031883	-34.254192	-99.132624	0.000000	
8.908520	-7.596297	-53.657494	5.402172	-2.321211	2.100691	-34.731714	-109.434894	0.000000	
9.965619	-7.674357	-52.107727	3.550302	-2.418624	2.138892	-36.472452	-77.210288	0.000000	
7.127287	-7.877445	-56.247833	8.845692	-1.701662	1.595277	-23.930682	-165.933544	0.000000	
6.863752	-7.924412	-55.726275	8.888843	-1.702705	1.614215	-24.431362	-168.300589	0.000000	
10.321194	-7.405100	-50.722964	2.173354	-2.727840	2.248624	-43.149526	-51.851693	0.000000	
10.049958	-7.495885	-52.281704	3.421439	-2.448777	2.066988	-36.839936	-74.299744	0.000000	
9.077719	-7.728478	-52.968377	5.359238	-2.230185	1.976906	-33.275591	-110.177518	0.000000	
-1.022496	-9.420044	-64.860570	24.300997	0.716052	0.330661	9.367935	-383.626928	0.000000	
2.920231	-8.497859	-59.166439	16.596240	-0.434016	1.038144	-5.353607	-289.372380	0.000000	
1.148165	-9.043274	-62.448558	20.038387	0.246013	0.674132	4.183650	-329.816273	0.000000	
2.609355	-8.851177	-60.899017	17.153855	-0.339548	0.872702	-3.958885	-290.644778	0.000000	
9.610807	-7.323254	-52.622903	4.024647	-2.326230	2.102683	-34.745634	-85.102032	0.000000	
9.612725	-7.497391	-54.182845	4.195297	-2.293793	2.063092	-33.167318	-86.005171	0.000000	
7.259700	-7.659444	-54.168924	8.503562	-1.916700	1.707554	-28.651499	-165.728804	0.000000	
8.680471	-7.685850	-53.658643	5.660062	-2.138440	1.921701	-31.563264	-114.332337	0.000000	
6.242632	-8.150010	-56.763150	9.835167	-1.638197	1.450752	-23.476970	-182.135592	0.000000	
11.827290	-7.300484	-51.078722	0.192002	-3.005150	2.425882	-46.629128	-12.591120	0.000000	
11.915724	-6.858855	-49.864242	-0.279832	-3.068995	2.518527	-48.926511	-2.918698	0.000000	
9.954843	-7.277646	-52.108192	3.896548	-2.567614	1.960517	-39.342991	-83.427197	0.000000	
1.678673	-8.821220	-59.852905	19.007144	0.088874	0.841047	2.271131	-326.646449	0.000000	
5.887706	-8.290113	-57.626847	11.644166	-1.388284	1.414476	-19.145729	-210.945975	0.000000	
-0.803471	-8.976960	-64.167038	24.001132	0.775001	0.386638	10.587899	-382.703834	0.000000	
3.455197	-8.668118	-59.343541	15.561973	-0.800321	1.125997	-11.006797	-271.243733	0.000000	
7.838224	-7.870862	-54.866559	7.295795	-1.950355	1.758553	-28.318974	-141.835270	0.000000	
-1.594948	-9.247964	-65.028058	24.775009	0.746916	0.330618	9.322482	-389.781805	0.000000	
3.093552	-8.582790	-60.035387	16.466295	-0.553931	0.928329	-7.122931	-283.110697	0.000000	
9.704438	-7.368026	-51.929585	3.637696	-2.661510	2.228985	-41.554281	-78.824308	0.000000	
8.944253	-7.417911	-53.139375	4.972098	-2.413514	1.940458	-36.761930	-102.212309	0.000000	
9.254248	-7.415695	-53.141199	4.842922	-2.322700	1.994390	-34.724475	-99.775684	0.000000	
10.013493	-7.360764	-52.452071	2.645987	-2.694737	2.191123	-41.451078	-59.132505	0.000000	
9.516394	-7.413683	-52.104979	4.197304	-2.416339	1.978385	-36.914234	-89.350891	0.000000	
5.048606	-8.253651	-57.793566	12.634565	-1.143891	1.361042	-15.678688	-227.441248	0.000000	
9.968407	-7.363283	-52.971016	3.507477	-2.478868	2.190944	-37.025225	-74.827252	0.000000	
12.229315	-7.207858	-50.040939	-0.970344	-3.161992	2.570764	-50.263326	10.496366	0.000000	
8.152585	-7.647208	-54.173316	6.478526	-2.196365	1.920911	-32.886873	-128.322076	0.000000	
1.411738	-9.128922	-62.451637	19.607730	-0.057479	0.637600	-0.439420	-322.981146	0.000000	
6.285293	-8.195575	-56.590628	10.222914	-1.424745	1.451740	-19.731991	-189.585340	0.000000	
1.065611	-9.087278	-63.139444	19.994959	-0.026393	0.743686	-0.258468	-325.567540	0.000000	
7.042058	-7.876972	-55.900185	8.457767	-1.643648	1.649464	-23.122353	-160.020369	0.000000	
12.183486	-7.165331	-49.694340	-0.840498	-3.252490	2.553736	-52.481256	8.010374	0.000000	
4.297948	-8.304569	-59.000352	14.012080	-0.866352	1.287574	-11.383957	-246.201810	0.000000	
-5.056743	-9.992057	-70.032645	32.567140	2.140070	-0.356353	25.719423	-473.846206	0.000000	
3.676081	-8.707259	-60.038571	15.001157	-0.892228	1.087958	-12.212861	-258.808766	0.000000	
8.938918	-7.595624	-53.834971	5.703669	-2.227664	1.814061	-32.850454	-114.676503	0.000000	
1.108359	-9.043946	-62.966473	20.210693	0.065291	0.744506	1.237160	-329.847208	0.000000	
8.946263	-7.550026	-54.698573	5.660061	-2.257934	1.937407	-32.890098	-112.034758	0.000000	
2.825373	-8.631711	-60.034158	17.413933	-0.247747	0.875598	-2.273542	-298.947171	0.000000	
-0.443845	-9.366962	-64.690595	22.792934	0.649858	0.437472	8.873276	-361.274794	0.000000	
9.119144	-7.551052	-53.661577	5.617998	-2.288637	1.922004	-33.901869	-113.401302	0.000000	
10.761096	-7.266395	-52.284495	2.129690	-2.664901	2.209628	-40.208466	-49.343396	0.000000	
6.248615	-8.151175	-56.934276	10.136569	-1.455825	1.594159	-20.199680	-186.885601	0.000000	
12.267258	-6.987491	-50.214564	-0.538883	-3.038463	2.481698	-47.589845	2.111155	0.000000	
11.832937	-6.989291	-51.421711	-0.152290	-3.006961	2.550593	-46.352415	-5.477549	0.000000	
10.410135	-7.315023	-51.761922	2.388430	-2.725803	2.246568	-42.163462	-54.884696	0.000000	
10.851414	-7.136239	-51.244318	2.088235	-2.877874	2.319576	-45.065792	-49.377009	0.000000	
11.605616	-7.217721	-50.556777	0.882436	-3.094036	2.445594	-49.106568	-26.277476	0.000000	
4.556575	-8.127366	-57.790604	13.669079	-0.988901	1.236683	-13.475234	-245.231321	0.000000	
2.122283	-8.900596	-62.454399	18.574668	-0.272449	0.780497	-3.243127	-306.220720	0.000000	
10.496052	-7.138035	-51.762015	2.475241	-2.725111	2.229067	-42.056898	-56.369880	0.000000	
7.309157	-7.964565	-55.382242	8.328673	-1.523271	1.740383	-20.887058	-159.267095	0.000000	
-0.579524	-9.150474	-64.342334	23.440617	0.531152	0.421129	6.962329	-373.103255	0.000000	
2.473409	-8.546878	-60.376969	17.888014	-0.367350	0.875002	-4.573116	-305.027603	0.000000	
4.960785	-8.519507	-57.967550	12.891883	-0.900767	1.342772	-11.524869	-231.457377	0.000000	
6.996147	-7.702849	-55.898877	8.975696	-1.701979	1.650147	-24.212459	-169.114781	0.000000	
12.356263	-7.208544	-50.043216	-0.625172	-3.250449	2.481523	-51.886371	3.597596	0.000000	
9.256737	-7.945315	-53.490845	4.841090	-2.292048	1.974885	-33.927006	-99.650102	0.000000	
3.000985	-8.628138	-60.728794	17.069011	-0.489985	0.819729	-6.083134	-289.853999	0.000000	
2.616751	-8.676168	-60.376021	17.068781	-0.462179	1.071054	-6.010616	-291.583683	0.000000	
12.134462	-6.944607	-51.252361	0.064020	-3.125908	2.443877	-48.493688	-9.664539	0.000000	
9.301073	-7.502474	-52.968409	4.368613	-2.415713	2.029961	-36.541588	-91.235875	0.000000	
6.553270	-7.796535	-56.069501	9.836911	-1.547771	1.596565	-21.834074	-184.056155	0.000000	
11.338421	-7.174032	-50.555451	0.881897	-2.852414	2.374074	-44.625026	-26.218992	0.000000	
0.088775	-9.317784	-63.481466	21.458471	0.280997	0.546561	3.717503	-347.075741	0.000000	
4.644111	-8.299368	-58.832196	13.279732	-0.958907	1.144085	-12.657296	-234.450139	0.000000	
5.486815	-8.162318	-57.104347	12.204609	-1.114885	1.362733	-14.919908	-222.557473	0.000000	
3.720386	-8.574178	-59.518493	14.743118	-0.772847	1.125126	-10.265140	-256.602260	0.000000	
9.434928	-7.367683	-53.488254	4.282382	-2.354972	2.064831	-34.918091	-88.603517	0.000000	
12.316287	-7.118460	-49.868351	-1.228316	-3.314206	2.553034	-53.389027	15.809157	0.000000	
9.742454	-7.498773	-52.798456	3.938095	-2.446925	2.066052	-36.778785	-83.369008	0.000000	
-0.053056	-8.969842	-63.306941	22.709574	0.498205	0.441388	7.035247	-367.484428	0.000000	
4.341349	-8.127217	-59.172950	14.012533	-0.896353	1.287429	-11.818890	-245.325541	0.000000	
5.136167	-8.119931	-57.966765	12.591725	-1.113460	1.360883	-15.024461	-225.895615	0.000000	
6.647619	-8.192767	-56.417416	9.620183	-1.639208	1.666556	-23.231172	-179.478679	0.000000	
11.876988	-7.034210	-51.249112	-0.151843	-3.249046	2.550707	-51.181344	-5.551154	0.000000	
9.564815	-7.414415	-52.276957	4.455859	-2.294380	2.085885	-34.410473	-94.006275	0.000000	
1.503567	-9.083099	-62.624278	19.349179	-0.088794	0.708690	-0.858153	-317.923346	0.000000	
-0.010010	-9.055337	-64.347458	22.708371	0.590216	0.367257	8.376193	-361.611104	0.000000	
2.966514	-8.493699	-60.725124	16.508653	-0.342204	1.016575	-3.681710	-280.519477	0.000000	
6.640291	-8.106708	-56.591757	10.310197	-1.695975	1.541489	-24.172380	-191.035779	0.000000	
11.254940	-6.998298	-50.379190	0.710404	-3.096111	2.481750	-49.708634	-22.708131	0.000000	
11.830563	-7.035682	-50.210335	-0.323563	-3.220453	2.535086	-51.706336	-2.230812	0.000000	
7.793907	-7.917031	-55.212592	7.855789	-1.917451	1.758222	-27.595513	-151.140872	0.000000	
7.528278	-7.829685	-55.902988	8.328892	-1.552415	1.721558	-21.001238	-157.659602	0.000000	
0.123502	-9.013009	-62.789018	22.365321	0.375687	0.460120	5.306283	-365.064842	0.000000	
-0.936382	-9.288256	-64.687521	24.560139	0.808044	0.331688	10.891906	-388.542759	0.000000	
3.898183	-8.529303	-59.172734	14.528327	-0.894806	1.179540	-12.213014	-254.424450	0.000000	
11.248157	-7.040948	-52.113073	1.527443	-2.727250	2.299626	-41.010154	-37.703741	0.000000	
8.905940	-7.684110	-53.138855	5.143445	-2.201560	2.047919	-32.814065	-105.718897	0.000000	
3.320815	-8.622733	-60.901534	16.077684	-0.554785	1.033472	-6.837473	-272.751649	0.000000	
-1.072411	-9.423228	-63.995622	24.689469	0.838249	0.261538	11.370890	-394.874031	0.000000	
-3.233120	-9.970431	-68.138492	28.260193	1.336497	0.002619	16.164704	-423.769326	0.000000	
1.055798	-9.045498	-62.275859	20.254529	-0.085764	0.584759	-1.213321	-334.201360	0.000000	
11.474678	-7.170816	-51.767811	0.752010	-3.033370	2.406799	-46.946242	-23.111486	0.000000	
11.604061	-6.949121	-50.382948	0.107207	-3.067262	2.409837	-48.743602	-10.679474	0.000000	
12.269322	-6.944385	-50.213548	-0.409208	-3.159105	2.535509	-49.991066	-0.423095	0.000000	
5.709126	-8.378234	-57.280670	11.342009	-1.269108	1.343210	-17.351051	-207.027211	0.000000	
3.976940	-8.265159	-59.000988	14.917351	-0.922642	1.037441	-12.643156	-261.505008	0.000000	
-2.794123	-9.747989	-67.621160	28.132525	1.215587	0.040066	14.870609	-424.932577	0.000000	
9.126514	-7.636325	-52.794264	4.368111	-2.355917	2.048029	-35.712434	-91.666882	0.000000	
11.251345	-7.220697	-50.208172	1.097641	-2.912621	2.410746	-46.224708	-30.743869	0.000000	
11.956908	-6.903288	-50.558226	0.193824	-3.096143	2.445624	-48.757005	-12.307615	0.000000	
4.112122	-8.305182	-59.348144	14.399322	-0.682460	1.072225	-8.399009	-251.289269	0.000000	
-2.617231	-9.615476	-65.889640	27.530733	1.302358	0.133573	16.749630	-426.831878	0.000000	
-1.333619	-9.422205	-64.685903	24.387096	0.685476	0.259247	8.652813	-385.993526	0.000000	
2.389490	-8.590951	-61.241264	18.102693	-0.366161	0.926779	-4.577168	-304.280065	0.000000	
10.760553	-7.358137	-50.899474	2.130755	-2.787147	2.248481	-43.683468	-50.785996	0.000000	
11.783186	-6.946427	-50.729933	-0.108655	-2.946586	2.462802	-45.838666	-6.353902	0.000000	
8.151905	-7.517146	-53.479483	6.823947	-1.923394	1.977136	-28.199824	-136.298845	0.000000	
1.855076	-8.903173	-62.106754	18.790054	-0.151300	0.727731	-1.547614	-311.400568	0.000000	
0.253847	-8.833188	-62.616661	21.762489	0.282621	0.424363	3.953568	-356.279006	0.000000	
4.387650	-8.658186	-58.137004	13.624029	-0.989561	1.306557	-13.574028	-243.512395	0.000000	
11.335012	-7.176453	-50.902344	1.614603	-2.878892	2.320201	-44.850207	-40.442873	0.000000	
11.564291	-7.170598	-50.382701	0.149473	-2.946388	2.481308	-46.389005	-11.765085	0.000000	
11.562814	-7.125671	-51.248767	0.407677	-3.004813	2.425766	-46.760021	-16.569045	0.000000	
8.236689	-7.515837	-53.134444	6.479574	-2.045653	1.905886	-30.589229	-130.696112	0.000000	
6.112581	-8.020793	-56.760149	10.481761	-1.394094	1.541338	-19.306129	-193.409135	0.000000	
6.949871	-7.748324	-55.899236	9.320193	-1.549174	1.614724	-21.525195	-175.322166	0.000000	
7.089485	-7.879271	-55.552779	8.759913	-1.642906	1.758164	-23.200766	-166.457219	0.000000	
11.606656	-7.125984	-50.556441	0.192707	-3.006282	2.445141	-47.369965	-12.533084	0.000000	
10.365060	-7.227713	-51.761127	2.647129	-2.603792	2.247058	-39.855781	-59.788832	0.000000	
8.106229	-7.692802	-54.000553	6.737030	-2.104580	1.885748	-31.338024	-133.564454	0.000000	
2.828820	-8.631017	-59.687141	16.854317	-0.613719	0.929218	-8.410439	-291.304042	0.000000	
-0.933045	-8.933390	-63.991888	23.871886	0.803930	0.440673	10.957505	-381.691165	0.000000	
-1.198921	-9.732410	-64.341527	24.515935	0.716200	0.313601	9.298316	-390.328062	0.000000	
5.090803	-8.251639	-57.967843	12.418739	-1.053621	1.306800	-14.035831	-223.034746	0.000000	
11.207978	-7.354460	-50.727774	1.570968	-2.849706	2.409819	-44.567018	-39.915973	0.000000	
10.630753	-7.312353	-52.109983	2.215909	-2.725670	2.245731	-41.646998	-51.209958	0.000000	
5.802262	-7.894199	-56.756857	11.473420	-1.360312	1.542337	-19.018761	-210.767215	0.000000	
0.974999	-9.042516	-63.485734	19.994704	-0.026069	0.671208	-0.336325	-323.752554	0.000000	
1.275832	-8.911598	-63.315472	20.857406	0.220773	0.601489	3.830090	-338.130410	0.000000	
10.192432	-7.228916	-52.451357	2.991280	-2.572173	2.299412	-38.923487	-65.575363	0.000000	
11.785880	-7.390832	-50.385320	0.149263	-3.066904	2.498914	-48.531758	-12.005583	0.000000	
11.381802	-6.996755	-50.901166	1.011457	-2.821203	2.373711	-43.666306	-28.396355	0.000000	
8.371260	-7.642382	-55.387996	6.391232	-2.013367	1.846639	-28.657465	-123.944818	0.000000	
6.861211	-7.793448	-56.764742	9.836702	-1.576515	1.577191	-21.778277	-181.805101	0.000000	
4.476329	-8.214365	-58.134846	13.323478	-0.930428	1.360798	-12.471743	-237.923162	0.000000	
4.686421	-8.125346	-57.965588	13.539616	-0.928245	1.182556	-12.264833	-242.258091	0.000000	
8.146518	-7.473361	-53.826972	7.211704	-1.860447	1.869338	-26.859032	-142.582323	0.000000	
6.822948	-8.100408	-56.765214	9.146060	-1.640404	1.629690	-22.941421	-169.940360	0.000000	
9.789957	-7.409365	-52.970507	3.765855	-2.477985	2.137263	-37.197922	-79.754544	0.000000	
9.390750	-7.682119	-53.142292	5.144220	-2.381825	2.083894	-35.692235	-105.724587	0.000000	
5.408167	-8.201602	-57.794870	11.126293	-1.301310	1.467189	-18.053042	-201.288614	0.000000	
-1.556430	-9.384088	-64.856921	25.722931	0.993421	0.260399	13.183225	-405.541523	0.000000	
2.076953	-8.636340	-61.067373	18.102138	-0.215482	0.819578	-2.407694	-305.176810	0.000000	
9.655470	-7.409802	-53.836520	4.239080	-2.354258	2.064055	-34.454197	-87.275181	0.000000	
11.117559	-7.351584	-51.767275	1.440584	-2.788752	2.299737	-42.608445	-36.608987	0.000000	
10.586127	-6.914893	-52.107189	2.302985	-2.574359	2.282379	-38.793415	-52.455770	0.000000	
3.539072	-8.711643	-59.345558	15.776907	-0.435838	1.054936	-4.785433	-274.897430	0.000000	
-5.099078	-10.166890	-69.860302	31.877289	1.894842	-0.375100	22.240561	-465.278854	0.000000	
5.357478	-8.250875	-57.968994	12.462225	-1.113475	1.378625	-14.809979	-223.779760	0.000000	
11.521010	-7.215050	-50.901882	0.407527	-2.914690	2.480267	-45.348862	-16.772000	0.000000	
10.943529	-7.574103	-52.286023	1.913244	-2.544792	2.316695	-37.714402	-45.532512	0.000000	
8.989381	-7.552599	-52.620301	5.273753	-2.261436	1.995729	-34.178590	-109.088857	0.000000	
8.064275	-8.222670	-55.388240	7.380598	-1.798032	1.846768	-25.080585	-142.394493	0.000000	
4.382063	-8.172189	-58.654919	14.012954	-0.956913	1.234814	-12.909855	-247.535228	0.000000	
3.463789	-8.664226	-59.861203	14.785619	-0.864380	1.249338	-11.980495	-255.932241	0.000000	
5.584749	-8.112937	-58.141608	11.471168	-1.178164	1.502928	-15.661623	-205.939104	0.000000	
6.862146	-7.882505	-55.726019	9.449311	-1.609469	1.614935	-22.759966	-178.316730	0.000000	
8.460238	-7.732399	-54.003464	6.047616	-2.227719	1.903029	-33.248770	-120.832333	0.000000	
11.924817	-7.167125	-51.595353	0.106104	-3.157034	2.621732	-49.007806	-10.663319	0.000000	
9.964475	-7.366111	-51.586373	3.594571	-2.328286	2.176563	-35.083148	-78.505271	0.000000	
4.026561	-8.572671	-59.175055	14.614399	-0.803003	1.108088	-10.539446	-255.910149	0.000000	
3.673593	-8.445420	-59.344299	15.519505	-0.678922	1.126573	-8.754491	-270.314095	0.000000	
6.557653	-8.059382	-57.282378	9.878209	-1.486158	1.611314	-20.308541	-181.154640	0.000000	
10.019367	-7.585411	-52.277983	3.249087	-2.662516	2.335155	-40.963843	-71.104223	0.000000	
11.475689	-7.348029	-51.422230	0.708531	-2.943062	2.425324	-45.499137	-22.609174	0.000000	
11.784105	-6.990979	-50.903013	0.063446	-2.885253	2.480477	-44.479581	-9.765123	0.000000	
5.848646	-8.114759	-56.411617	11.257454	-1.301060	1.578539	-18.033860	-208.443108	0.000000	
-0.751601	-9.591974	-65.035535	23.438589	0.561501	0.418729	7.197915	-369.484808	0.000000	
0.131811	-9.144536	-63.826585	22.450465	0.315902	0.582883	4.277846	-360.593172	0.000000	
7.045573	-7.703401	-55.204829	8.760558	-1.582980	1.795117	-22.301153	-167.334202	0.000000	
10.590434	-7.623591	-51.244563	2.043389	-2.818272	2.318679	-44.188251	-49.035241	0.000000	
6.065324	-8.023504	-55.894653	10.568926	-1.575867	1.507419	-22.892381	-197.953551	0.000000	
6.379123	-8.283802	-56.070703	9.878424	-1.517709	1.577868	-21.471739	-185.280203	0.000000	
1.774477	-8.948110	-61.411571	18.359336	-0.184944	0.890024	-2.177709	-307.943885	0.000000	
5.094183	-8.208928	-58.139458	12.763612	-1.022075	1.396408	-13.450867	-228.269407	0.000000	
4.875615	-8.251059	-59.696630	12.762155	-1.111957	1.338646	-14.831631	-222.351444	0.000000	
6.690962	-7.970333	-56.589842	9.491222	-1.548799	1.666479	-21.522190	-176.434894	0.000000	
9.218664	-7.721872	-53.834167	4.280892	-2.355357	2.081237	-34.931342	-88.380887	0.000000	
9.883723	-7.230537	-52.968651	3.292258	-2.510637	2.262497	-37.716316	-70.626793	0.000000	
12.276676	-7.163225	-50.905856	-0.712026	-3.250988	2.622712	-51.118763	5.278977	0.000000	
9.260506	-7.546911	-53.487374	4.540681	-2.445117	2.082515	-36.786980	-93.622135	0.000000	
1.594901	-8.865867	-61.582924	19.652610	-0.118977	0.873055	-1.266258	-328.014889	0.000000	
3.370317	-8.666548	-60.381076	15.732983	-0.466392	1.159832	-5.379708	-269.427608	0.000000	
9.394796	-7.457196	-53.487281	4.325462	-2.506432	2.136208	-37.792527	-89.504446	0.000000	
9.132508	-7.283728	-53.829467	5.014922	-2.201666	2.208139	-32.168986	-101.568052	0.000000	
6.107180	-8.112243	-56.588635	11.128446	-1.451464	1.452614	-20.381420	-205.511372	0.000000	
2.921781	-8.492925	-61.591028	16.637539	-0.522317	0.960677	-6.606096	-278.679008	0.000000	
9.794220	-7.321156	-52.622361	3.550834	-2.479681	2.245497	-37.466504	-76.096645	0.000000	
11.784208	-7.037894	-50.037103	0.150496	-3.037043	2.518217	-48.269125	-11.712367	0.000000	
8.863245	-7.597930	-53.484034	5.746843	-2.108205	2.101641	-30.906689	-116.233270	0.000000	
8.113421	-7.956359	-54.866198	6.692441	-2.074176	1.972861	-30.294520	-130.926820	0.000000	
3.981473	-8.001670	-58.131879	14.789391	-0.864118	1.201070	-11.809289	-262.946994	0.000000	
-5.358202	-10.125989	-70.721941	32.695368	2.079475	-0.268772	24.365108	-471.155133	0.000000	
8.507846	-7.598911	-54.521500	6.047731	-2.287982	1.973624	-33.996669	-119.556691	0.000000	
2.798909	-8.852032	-60.376634	17.025123	-0.311142	1.196439	-3.339697	-291.021064	0.000000	
-4.160434	-9.983314	-68.823622	30.414353	1.404691	-0.033302	16.230806	-450.869069	0.000000	
-3.150993	-9.620607	-66.579432	28.564137	1.457793	0.007340	18.452707	-437.943835	0.000000	
11.344449	-7.173213	-51.073299	0.838389	-2.852636	2.480292	-44.178278	-25.108617	0.000000	
12.098841	-7.168917	-49.518959	-0.280079	-3.160087	2.662230	-50.894224	-3.279705	0.000000	
10.592730	-7.316385	-51.241502	2.475336	-2.756333	2.427131	-42.979566	-57.131367	0.000000	
8.064934	-7.827080	-54.346295	7.210460	-2.011781	1.939010	-29.478754	-141.569887	0.000000	
8.907899	-7.372811	-53.829826	4.971460	-2.292692	2.082303	-34.093889	-100.852845	0.000000	
8.198227	-7.913384	-54.174523	6.865371	-1.892160	1.957084	-27.223610	-135.735625	0.000000	
5.847195	-8.292143	-56.586297	11.429504	-1.451149	1.524123	-20.634446	-211.018548	0.000000	
0.176373	-9.013048	-62.613544	22.192990	0.434576	0.657525	6.311261	-363.333400	0.000000	
1.199568	-9.175730	-63.486652	20.253353	-0.085224	0.778846	-1.069637	-327.939680	0.000000	
7.172904	-7.878855	-55.381634	8.760167	-1.672670	1.668971	-23.722946	-166.973281	0.000000	
-3.057854	-9.839600	-67.272948	28.433857	1.367077	0.058946	16.983569	-431.683513	0.000000	
4.078378	-8.660068	-60.039641	14.656834	-0.923494	1.231252	-12.357456	-253.025142	0.000000	
9.618919	-7.322637	-52.967086	3.766151	-2.599930	2.244635	-39.683741	-79.673353	0.000000	
10.280035	-7.494677	-52.107389	3.034102	-2.632405	2.281957	-40.236834	-67.110839	0.000000	
11.125408	-7.177086	-51.244030	1.484760	-2.850387	2.516198	-44.229651	-37.645503	0.000000	
6.115973	-7.979975	-56.758337	11.085659	-1.482599	1.649397	-20.862700	-204.014747	0.000000	
7.752974	-7.739163	-55.210413	7.554314	-1.828493	1.829918	-26.026930	-145.505566	0.000000	
12.229183	-6.990013	-49.000124	-0.839428	-3.223066	2.645286	-52.560820	8.314290	0.000000	
8.599790	-7.775931	-54.002536	5.918264	-2.198342	2.064199	-32.560355	-118.484314	0.000000	
8.768831	-7.555595	-53.137814	6.048793	-2.016202	1.995373	-29.471206	-122.622977	0.000000	
5.940337	-7.978385	-56.584117	10.524938	-1.364670	1.631344	-19.014529	-194.729302	0.000000	
6.603626	-7.927353	-56.761733	9.706748	-1.578274	1.684170	-22.065014	-179.657590	0.000000	
8.159834	-7.693673	-53.997904	6.780235	-2.105160	2.100806	-31.294570	-134.371985	0.000000	
5.279158	-8.382156	-57.966712	11.858341	-1.207818	1.538905	-16.513864	-213.497842	0.000000	
6.780107	-7.883282	-55.204188	9.061930	-1.793874	1.740989	-26.391473	-172.978180	0.000000	
-2.126973	-9.697073	-66.412423	26.582572	0.966905	0.202910	11.974723	-409.270427	0.000000	
2.836370	-8.493815	-61.416422	16.551521	-0.614056	1.014589	-8.194400	-278.069210	0.000000	
6.332710	-7.846492	-55.547990	10.612959	-1.485004	1.634242	-21.124485	-199.797765	0.000000	
3.900657	-8.662178	-59.345985	14.614099	-0.924667	1.214813	-12.680484	-255.254977	0.000000	
3.144628	-8.452944	-59.686048	16.725916	-0.674757	1.126577	-9.136361	-288.990687	0.000000	
7.268911	-8.012073	-54.861179	8.587876	-1.674342	1.849104	-23.872833	-165.545360	0.000000	
9.436752	-7.500716	-52.968528	4.066956	-2.416983	2.101416	-36.421770	-85.538793	0.000000	
11.785190	-6.994127	-50.036402	0.279778	-2.915536	2.554373	-45.840308	-14.247193	0.000000	
9.795359	-7.629211	-53.490511	3.721567	-2.387294	2.207413	-35.142836	-78.389771	0.000000	
10.281493	-7.228515	-51.759138	2.604045	-2.665103	2.336465	-41.132398	-58.959574	0.000000	
6.999935	-7.791036	-56.071461	9.018193	-1.550700	1.721526	-21.438611	-169.442924	0.000000	
11.298140	-7.086216	-51.072937	1.054404	-3.002897	2.444614	-47.171534	-29.242760	0.000000	
11.966237	-7.082173	-49.344287	-0.193445	-3.250967	2.662669	-53.064126	-4.945524	0.000000	
10.100686	-7.493412	-53.493140	3.334494	-2.569425	2.153503	-38.225647	-71.007578	0.000000	
5.542118	-8.161562	-56.582127	11.515627	-1.330958	1.595984	-18.814246	-212.426642	0.000000	
-4.296272	-9.718952	-68.821807	30.716086	1.829252	-0.068070	22.289505	-455.049682	0.000000	
3.097490	-8.803859	-61.420844	17.111187	-0.489567	0.961247	-5.928510	-287.444468	0.000000	
9.485781	-7.589815	-53.140931	4.282109	-2.355703	2.208675	-35.101242	-89.406716	0.000000	
4.343815	-8.346666	-59.693392	13.882196	-0.926738	1.285702	-12.229410	-241.216559	0.000000	
-0.004475	-9.454524	-63.828787	22.578631	0.407400	0.457142	5.591359	-362.861208	0.000000	
-1.104448	-9.421767	-64.338493	24.172113	0.653715	0.474961	8.409984	-384.731564	0.000000	
4.208468	-8.524936	-59.694390	14.097217	-0.986255	1.195914	-13.353473	-244.982132	0.000000	
7.268550	-7.703963	-55.032230	8.933537	-1.672845	1.885332	-23.774230	-171.000262	0.000000	
3.631089	-8.668730	-59.171392	15.906868	-0.586842	1.162933	-7.261927	-277.859829	0.000000	
7.139165	-8.101258	-55.552698	8.888795	-1.703128	1.865417	-24.234668	-169.001670	0.000000	
10.722458	-7.312709	-51.070544	1.785805	-2.789122	2.355257	-43.620307	-43.814309	0.000000	
10.900988	-7.354280	-52.110644	1.871251	-2.787474	2.370850	-42.541529	-44.640500	0.000000	
8.466758	-7.646508	-53.827385	6.392864	-2.166581	2.083135	-32.212362	-127.549375	0.000000	
1.508421	-9.128003	-62.622999	19.435209	-0.028359	0.816267	0.111256	-319.343831	0.000000	
3.720553	-8.532673	-60.037068	15.647947	-0.587062	1.160885	-7.088616	-269.425246	0.000000	
2.791928	-8.808358	-60.378361	17.197918	-0.461017	1.053190	-5.828379	-293.834055	0.000000	
3.057115	-8.892075	-60.900620	16.723246	-0.461882	1.033625	-5.555034	-283.604145	0.000000	
9.482031	-7.323630	-52.621059	3.852217	-2.418339	2.156068	-36.634560	-81.828564	0.000000	
7.136083	-8.056756	-56.072808	9.147126	-1.671014	1.792879	-23.447554	-172.004151	0.000000	
7.048150	-8.100876	-56.245664	9.103706	-1.701485	1.774348	-24.007373	-170.750080	0.000000	
6.426397	-8.062356	-56.414968	9.964918	-1.426574	1.667172	-19.683048	-185.467430	0.000000	
10.720757	-7.490482	-51.418340	2.173143	-2.847368	2.300742	-44.465225	-51.250513	0.000000	
11.563551	-7.171734	-50.209566	0.322071	-2.945759	2.481889	-46.534545	-15.241656	0.000000	
11.653020	-6.773413	-50.380435	0.323208	-2.975955	2.553769	-46.879103	-14.771682	0.000000	
8.463235	-7.602841	-53.481699	6.436272	-2.105953	2.030385	-31.285545	-129.134391	0.000000	
2.970228	-8.497175	-60.030860	16.811136	-0.402435	1.143860	-4.715043	-288.796352	0.000000	
8.242578	-7.867554	-55.213776	6.908299	-2.193337	1.918603	-32.135695	-133.926976	0.000000	
9.216574	-7.506369	-52.273458	4.757081	-2.294322	2.157465	-34.785404	-99.873641	0.000000	
3.677648	-8.711494	-58.825254	15.346875	-0.771125	1.198798	-10.388331	-270.011206	0.000000	
-1.058683	-9.376005	-64.857735	24.085688	0.623547	0.491624	7.910800	-380.285843	0.000000	
-1.956340	-9.476443	-65.028413	26.325640	1.056007	0.170664	13.763763	-413.822266	0.000000	
1.726128	-9.082172	-62.105751	19.048172	-0.180976	0.781341	-2.141950	-315.723404	0.000000	
4.292229	-8.130091	-58.307953	14.185871	-1.047344	1.217797	-14.619362	-251.928441	0.000000	
4.119557	-8.306631	-58.480052	14.055431	-0.866927	1.252895	-11.659220	-249.128321	0.000000	
7.491167	-7.608504	-56.072600	8.028052	-1.856840	1.864147	-26.406345	-151.598642	0.000000	
6.916415	-7.881028	-56.069889	9.147317	-1.611233	1.810971	-22.602370	-171.840619	0.000000	
6.242987	-7.932516	-56.587698	10.654543	-1.272109	1.542276	-17.077587	-196.961892	0.000000	
6.692012	-8.103734	-56.590235	9.663261	-1.517845	1.684398	-20.974021	-179.606010	0.000000	
7.709461	-7.829616	-53.998174	7.296509	-1.951878	1.868073	-28.923735	-144.073520	0.000000	
10.631919	-7.180825	-51.762331	2.216671	-2.786680	2.300433	-43.098830	-51.420595	0.000000	
10.021621	-7.495594	-52.103766	2.904279	-2.482940	2.389299	-37.649243	-64.624820	0.000000	
9.308662	-7.811537	-52.968217	4.195210	-2.356480	2.154796	-35.415414	-88.289860	0.000000	
11.164408	-7.090591	-50.379116	1.615080	-2.850167	2.464798	-44.927668	-40.768305	0.000000	
9.794339	-7.453833	-53.142594	3.851742	-2.417335	2.226514	-35.934137	-81.162028	0.000000	
10.899135	-7.222976	-51.244400	1.700058	-2.909942	2.372802	-45.639261	-41.896879	0.000000	
10.993483	-7.043431	-51.935025	1.484300	-2.759398	2.496845	-42.042207	-37.002189	0.000000	
8.682861	-7.595128	-54.523548	5.530278	-2.138403	1.937568	-31.071924	-110.057884	0.000000	
6.953697	-7.882776	-55.552376	9.449556	-1.609733	1.704985	-22.740931	-178.876243	0.000000	
5.054011	-8.207004	-58.831052	12.504529	-1.143934	1.430178	-15.411663	-221.189820	0.000000	
-2.260664	-9.699687	-66.411550	27.056601	1.029215	0.185437	12.800178	-416.415759	0.000000	
2.615520	-8.674785	-60.895934	17.197213	-0.158560	1.034446	-0.981280	-291.208926	0.000000	
6.334326	-8.107149	-57.108371	10.395321	-1.454138	1.558302	-20.026756	-190.805995	0.000000	
9.170817	-7.506633	-53.139380	5.230543	-2.261165	2.102137	-33.655733	-107.169503	0.000000	
5.802832	-8.249401	-56.239237	11.559114	-1.390559	1.543089	-19.723835	-214.577733	0.000000	
-3.332884	-9.885490	-67.447560	28.778293	1.308562	-0.192256	15.841205	-435.712950	0.000000	
3.142064	-8.497522	-59.340591	16.811901	-0.432518	1.091848	-5.105200	-292.159496	0.000000	
8.681094	-7.507044	-54.350258	5.573680	-2.077789	1.920304	-30.055055	-111.113834	0.000000	
12.004511	-7.301872	-50.386693	0.322089	-3.004931	2.499438	-47.057057	-15.336220	0.000000	
11.742785	-7.080481	-50.382956	-0.151650	-3.098800	2.534848	-49.215061	-5.687972	0.000000	
7.576552	-7.873590	-55.036738	7.683245	-1.828467	1.812218	-26.285959	-148.441840	0.000000	
8.948959	-7.420323	-52.618045	5.230941	-2.231892	2.085465	-33.661635	-108.138818	0.000000	
3.102681	-8.800568	-60.900387	16.119794	-0.373788	1.051204	-4.066547	-273.612075	0.000000	
1.941163	-8.729584	-61.933129	19.437745	-0.299637	0.746863	-3.866872	-322.571922	0.000000	
9.567148	-7.546345	-52.623580	4.412192	-2.354851	2.102671	-35.335634	-92.703305	0.000000	
6.419903	-8.195875	-56.417577	10.266410	-1.485113	1.523882	-20.726242	-190.935630	0.000000	
2.300549	-8.768386	-61.068805	18.102189	-0.336136	0.891063	-4.177924	-305.291829	0.000000	
2.128334	-9.077285	-61.414889	17.928360	-0.306922	0.907429	-3.840472	-301.027841	0.000000	
7.083080	-8.012224	-55.036058	8.630872	-1.824775	1.615492	-26.722274	-165.803299	0.000000	
9.082412	-7.550316	-53.486143	5.186979	-2.291420	2.065280	-34.101058	-105.711313	0.000000	
11.430337	-7.215919	-50.728781	0.450731	-2.944910	2.426880	-46.196916	-17.679089	0.000000	
10.323679	-7.271158	-52.626279	2.775711	-2.663209	2.262885	-40.386668	-61.308915	0.000000	
9.391017	-7.680133	-53.489362	4.928219	-2.291689	2.065040	-33.780356	-101.003568	0.000000	
10.451196	-7.491250	-52.456859	2.775233	-2.602010	2.155628	-39.211517	-61.730605	0.000000	
4.030077	-8.618173	-58.827785	14.657686	-0.803459	1.198462	-10.601415	-258.195254	0.000000	
0.972828	-8.956762	-63.312145	20.555437	0.067024	0.672405	1.133367	-333.418622	0.000000	
2.126160	-8.681283	-61.239519	18.231479	-0.336076	0.926621	-4.327276	-306.474460	0.000000	
6.557470	-8.328214	-55.552016	9.792773	-1.578803	1.650668	-22.584498	-185.505598	0.000000	
2.205646	-8.460525	-61.241125	18.533961	-0.333905	0.783992	-4.218903	-311.203391	0.000000	
0.885797	-9.002688	-62.445378	20.512428	0.307646	0.728295	4.935150	-337.387844	0.000000	
2.214343	-8.721793	-61.241020	17.498631	-0.429683	0.889961	-5.774889	-294.537469	0.000000	
8.461617	-7.555506	-54.174997	6.176992	-2.015511	1.956988	-29.227482	-122.657218	0.000000	
5.402236	-8.116513	-57.622259	11.902583	-1.206958	1.396939	-16.473102	-215.278336	0.000000	
10.941399	-7.132141	-51.591345	1.441326	-2.880228	2.318175	-44.715728	-36.506772	0.000000	
9.568876	-7.281643	-52.448151	4.369897	-2.385755	2.175068	-36.038567	-91.921056	0.000000	
8.282234	-7.778521	-55.041637	6.908423	-2.011576	1.847712	-28.891063	-134.254784	0.000000	
6.596203	-7.929688	-55.724540	9.879919	-1.517398	1.579378	-21.376081	-186.096381	0.000000	
6.863681	-7.970489	-55.899336	9.448828	-1.548901	1.632372	-21.606778	-177.846056	0.000000	
-2.619161	-9.611395	-67.795634	27.572437	1.213864	0.003592	14.949692	-415.466628	0.000000	
9.437351	-7.545050	-53.141824	4.110002	-2.537638	2.100851	-38.575357	-86.119316	0.000000	
11.204008	-7.218784	-51.940681	1.570344	-2.848220	2.281736	-43.520358	-38.844250	0.000000	
11.741991	-6.993980	-50.209124	0.193610	-3.067238	2.553682	-48.754995	-12.484639	0.000000	
6.953591	-7.880574	-56.072247	9.233558	-1.610126	1.667708	-22.544508	-173.371006	0.000000	
1.992349	-8.769186	-61.759231	18.316749	-0.244597	0.853685	-2.937839	-305.362839	0.000000	
3.676026	-8.355423	-60.035856	15.519012	-0.557532	1.161025	-6.638488	-267.117376	0.000000	
9.304331	-7.680658	-53.661482	4.971209	-2.352176	2.082460	-34.892374	-101.483899	0.000000	
12.094740	-7.033642	-50.039194	-0.495815	-3.099698	2.553557	-49.171062	1.208951	0.000000	
9.568119	-7.189934	-53.140975	4.024614	-2.356271	2.119503	-35.024961	-84.138924	0.000000	
6.726417	-8.061566	-55.207460	9.664509	-1.518242	1.544458	-21.451851	-184.063985	0.000000	
-0.096431	-9.011826	-64.519131	22.837525	0.651024	0.402876	9.219137	-362.615040	0.000000	
1.017870	-9.089586	-63.139795	20.555247	0.066947	0.690562	1.177416	-334.441556	0.000000	
9.306951	-7.501850	-53.659919	4.497413	-2.324284	2.136036	-34.370819	-92.470243	0.000000	
11.697090	-7.347387	-50.730838	0.407658	-3.035403	2.480471	-47.683845	-16.974762	0.000000	
9.747134	-7.630017	-53.837597	4.109209	-2.354789	2.117401	-34.367850	-85.090682	0.000000	
3.411794	-8.578785	-60.035222	15.690773	-0.678330	1.124715	-8.897627	-270.189946	0.000000	
4.163586	-8.392287	-60.212954	14.312652	-0.954691	1.177182	-12.762867	-246.333585	0.000000	
9.081350	-7.595713	-53.832806	5.660735	-2.228454	2.047012	-32.717970	-113.883625	0.000000	
4.917837	-8.340338	-59.005230	12.719337	-1.082252	1.322261	-14.452607	-224.306574	0.000000	
8.060424	-8.047806	-54.349115	7.209953	-2.101979	1.813170	-31.141534	-141.781136	0.000000	
4.654679	-8.477435	-57.964273	12.934926	-0.962096	1.378430	-12.879830	-232.172265	0.000000	
1.326613	-8.907761	-62.448836	19.392760	-0.089256	0.709286	-1.024742	-319.354560	0.000000	
4.781611	-8.124968	-57.444748	13.152038	-0.961064	1.344671	-12.847234	-237.699880	0.000000	
-2.172705	-9.694882	-67.105566	26.495533	1.088243	0.129620	13.612826	-403.752541	0.000000	
4.644059	-8.303733	-58.485136	14.056035	-0.925703	1.199454	-12.160062	-249.114273	0.000000	
9.569858	-7.455792	-53.315865	4.110343	-2.597702	2.118515	-39.439139	-85.753318	0.000000	
11.741382	-7.299724	-51.077741	-0.195819	-3.188783	2.443155	-50.319544	-4.997751	0.000000	
10.229417	-7.273520	-52.627030	3.378961	-2.509082	2.156092	-37.557930	-72.773319	0.000000	
6.822247	-7.970241	-55.378907	9.018166	-1.612084	1.686827	-22.985342	-171.732837	0.000000	
8.190563	-7.691161	-54.521894	6.865829	-1.981972	1.795259	-28.710331	-134.655717	0.000000	
6.240095	-8.067532	-56.762139	11.300784	-1.299099	1.488528	-17.505860	-207.877620	0.000000	
9.706150	-7.718836	-53.143724	3.807540	-2.266364	2.190342	-33.185693	-80.608355	0.000000	
11.512989	-6.903937	-50.383066	-0.065472	-2.916653	2.338172	-45.855625	-7.201817	0.000000	
8.192965	-7.649530	-54.001038	7.082061	-2.042303	1.886283	-30.094369	-139.907629	0.000000	
2.695136	-8.453165	-61.417297	17.370560	-0.549615	0.854201	-7.274090	-291.363772	0.000000	
1.371420	-8.908772	-62.794927	19.909567	0.125036	0.745068	2.429179	-325.829907	0.000000	
6.861658	-7.970890	-55.553592	9.363016	-1.640157	1.597179	-23.381062	-177.403561	0.000000	
5.711561	-7.894639	-55.544890	10.956876	-1.333445	1.508839	-19.024494	-206.049189	0.000000	
8.949632	-7.685032	-52.619621	5.143909	-2.201928	2.067097	-33.090505	-106.763879	0.000000	
6.820037	-7.924482	-56.072148	9.060834	-1.611040	1.613632	-22.694484	-170.334850	0.000000	
1.369642	-8.867235	-61.582643	19.910717	0.093734	0.765893	1.982584	-332.208865	0.000000	
9.837148	-7.539966	-52.971070	3.334385	-2.479919	2.172498	-37.184059	-71.746658	0.000000	
11.163356	-7.131180	-50.553512	0.925065	-2.913294	2.391910	-46.025280	-27.026317	0.000000	
9.525304	-7.677463	-52.796990	4.023713	-2.507791	2.101481	-38.163393	-85.182850	0.000000	
11.119153	-7.308737	-51.246921	1.355201	-2.971268	2.354501	-46.592849	-35.259429	0.000000	
8.809776	-7.554666	-52.792937	5.704474	-2.199079	1.924026	-33.079126	-116.895668	0.000000	
8.063093	-7.911403	-55.560275	6.864634	-2.223544	1.810023	-32.665120	-132.355197	0.000000	
4.247867	-8.394978	-58.136322	14.055719	-0.957268	1.181916	-13.153604	-250.686696	0.000000	
-1.240273	-9.469084	-63.992117	24.646238	0.746147	0.422445	9.785109	-394.260255	0.000000	
4.912984	-8.252051	-59.006040	12.848862	-1.051062	1.232978	-13.928454	-226.414677	0.000000	
7.573627	-7.830461	-54.863909	7.941993	-1.706318	1.777251	-24.142872	-153.578976	0.000000	
11.782779	-7.167872	-50.558354	-0.194988	-3.189014	2.426702	-50.787024	-4.910859	0.000000	
6.371404	-7.844714	-56.069494	10.741561	-1.271628	1.507989	-17.091058	-200.238834	0.000000	
2.034038	-9.034267	-60.896125	18.014826	-0.185770	0.801389	-1.963883	-304.965587	0.000000	
5.353070	-8.160984	-57.796756	12.203713	-0.993412	1.289466	-12.778710	-219.884166	0.000000	
7.308453	-7.966601	-55.209041	8.587840	-1.733990	1.740822	-24.767582	-164.460548	0.000000	
10.942540	-7.262952	-52.111618	1.311137	-2.850052	2.298732	-43.696852	-33.792995	0.000000	
11.119867	-7.309791	-50.207540	1.140230	-2.822052	2.410661	-44.568309	-31.692068	0.000000	
5.619933	-7.984464	-56.238260	11.602585	-1.269377	1.418131	-17.751840	-215.090084	0.000000	
6.156440	-8.107414	-58.146584	10.825347	-1.391085	1.484545	-18.770495	-194.809455	0.000000	
-0.051799	-9.057920	-63.307155	22.666067	0.588689	0.459225	8.465621	-366.874016	0.000000	
5.264426	-8.074004	-57.449321	12.161332	-1.175626	1.290120	-16.109534	-220.386384	0.000000	
10.229451	-7.404894	-52.108638	2.861673	-2.541966	2.138663	-38.554767	-63.703555	0.000000	
8.763383	-7.642180	-54.006600	6.177204	-2.044494	1.832042	-29.539313	-123.131117	0.000000	
11.296769	-7.263348	-50.728092	1.011011	-2.972954	2.409328	-46.898104	-28.776533	0.000000	
4.380721	-8.260929	-58.136301	13.926693	-0.836642	1.218042	-10.950517	-248.338044	0.000000	
9.307039	-7.589559	-53.660608	4.324663	-2.385465	2.117750	-35.510447	-89.341476	0.000000	
3.672944	-8.487348	-59.691514	15.174320	-0.770694	1.071499	-10.246207	-263.003052	0.000000	
7.931294	-7.825330	-54.692483	6.908186	-1.982674	1.866167	-28.902061	-135.150357	0.000000	
9.563137	-7.545194	-52.971295	4.368788	-2.445059	1.994216	-36.816063	-91.279499	0.000000	
9.256233	-7.550413	-53.487853	5.531772	-2.107825	2.048026	-30.485185	-112.154252	0.000000	
5.711193	-8.157471	-56.932347	11.127501	-1.361410	1.415715	-19.071612	-204.303535	0.000000	
2.524229	-8.764706	-61.243027	17.541885	-0.398591	0.943933	-4.983144	-295.273439	0.000000	
-7.847026	-10.284316	-72.786607	37.259964	2.701672	-0.789996	30.281318	-520.647471	0.000000	
6.680617	-7.880829	-56.073072	9.147121	-1.670856	1.452387	-23.900380	-171.827207	0.000000	
9.966404	-7.365533	-52.971209	4.024848	-2.476487	2.173541	-36.982273	-84.596382	0.000000	
12.002082	-6.990405	-50.559026	-0.107990	-3.218346	2.445092	-51.123137	-6.434573	0.000000	
9.481819	-7.676805	-53.142894	4.066263	-2.356207	2.100835	-35.113640	-85.433668	0.000000	
8.280954	-7.735098	-54.175854	6.650653	-2.073925	1.849510	-30.492377	-131.584320	0.000000	
8.371890	-7.777650	-53.656742	6.047586	-2.167747	1.903788	-32.433229	-121.654625	0.000000	
10.408765	-7.669176	-51.418186	2.387695	-2.725824	2.193110	-42.441969	-55.618350	0.000000	
12.006434	-7.166928	-50.212679	-0.452967	-3.311187	2.516868	-53.314423	0.199716	0.000000	
9.834418	-7.453937	-52.278360	3.464823	-2.661318	2.156291	-41.139144	-75.089292	0.000000	
7.748923	-7.829570	-54.692438	7.727215	-2.009321	1.759330	-29.576381	-150.129996	0.000000	
8.058035	-8.001947	-54.869258	7.166482	-2.071211	1.740333	-30.295472	-139.605646	0.000000	
1.407957	-8.645293	-61.756518	19.911321	0.033931	0.658288	1.041220	-331.083949	0.000000	
4.736554	-8.390238	-58.658464	13.796914	-0.836015	1.270475	-10.508997	-244.045879	0.000000	
7.042587	-8.009435	-56.593517	8.758633	-1.641658	1.630005	-22.813039	-163.517507	0.000000	
3.367545	-8.447029	-60.033960	15.863421	-0.587031	1.143069	-7.418358	-272.948307	0.000000	
7.663064	-7.783491	-55.210654	7.511025	-1.858954	1.775968	-26.669903	-144.765914	0.000000	
3.361418	-8.402735	-58.996584	15.433308	-0.649839	1.037615	-8.605394	-270.400853	0.000000	
9.971926	-7.538475	-53.144543	3.204995	-2.449959	2.225830	-36.359216	-69.078859	0.000000	
5.577714	-8.029239	-56.930273	11.946878	-1.327973	1.434582	-18.616489	-218.577214	0.000000	
8.994242	-7.638636	-53.313017	5.014271	-2.262247	2.047442	-33.754820	-102.905394	0.000000	
9.612517	-7.544741	-53.143271	4.282535	-2.475876	2.101211	-37.227211	-89.363239	0.000000	
9.969072	-7.409655	-51.412438	3.120876	-2.663557	2.247739	-41.715360	-69.602012	0.000000	
7.527972	-7.874105	-55.384050	7.941782	-1.947702	1.703943	-28.328137	-152.184670	0.000000	
1.099159	-9.044490	-62.795858	20.469334	0.157795	0.566117	2.707526	-334.860435	0.000000	
-5.098549	-9.815397	-69.684391	32.180343	1.835221	-0.302260	21.443520	-470.517288	0.000000	
10.719465	-7.486938	-51.765634	1.612360	-2.849288	2.227703	-44.210687	-40.075178	0.000000	
10.849160	-7.223766	-51.072453	1.958477	-2.696872	2.266175	-41.673246	-47.095914	0.000000	
10.273929	-7.317677	-51.761787	2.905610	-2.693324	2.175359	-41.683748	-64.879268	0.000000	
7.349114	-7.744386	-56.074865	8.846486	-1.731737	1.667672	-24.316458	-166.323897	0.000000	
5.050710	-8.295182	-58.659407	12.504207	-1.022776	1.358924	-13.392161	-221.913536	0.000000	
8.326848	-7.779516	-54.175902	6.650774	-2.194936	1.885175	-32.678487	-131.632435	0.000000	
11.115559	-6.910599	-51.591707	1.571370	-2.818679	2.318826	-43.333012	-38.786225	0.000000	
10.324809	-7.182525	-52.279131	2.517608	-2.695046	2.299381	-41.257387	-56.678487	0.000000	
4.030613	-8.572060	-59.520289	14.571022	-0.803215	1.178885	-10.482631	-253.701166	0.000000	
-0.177397	-9.058247	-64.170118	22.880839	0.589524	0.564785	8.244386	-365.298406	0.000000	
1.063169	-9.084803	-63.833181	19.864992	0.004209	0.652370	0.213048	-319.999890	0.000000	
5.399384	-8.295355	-58.316496	12.720736	-1.232681	1.324147	-16.730213	-226.926807	0.000000	
7.927413	-7.870977	-54.520535	7.167018	-2.072100	1.795008	-30.634948	-140.368426	0.000000	
8.863919	-7.551474	-53.830309	5.358850	-2.230576	2.082455	-32.985497	-108.234679	0.000000	
2.874115	-8.718326	-59.687743	16.724527	-0.462999	0.947066	-5.842652	-289.208699	0.000000	
3.981361	-8.442290	-58.827540	14.916717	-0.741653	1.127358	-9.597294	-262.431805	0.000000	
10.450456	-7.228419	-51.416088	2.733861	-2.694031	2.212098	-41.779831	-61.872231	0.000000	
11.523968	-7.123563	-50.727893	-0.454172	-3.039915	2.515656	-47.966993	0.261146	0.000000	
11.560016	-6.995287	-50.555663	0.667052	-2.852993	2.428028	-44.390360	-21.770834	0.000000	
7.708194	-7.694653	-55.210101	7.468114	-1.798684	1.811986	-25.532657	-143.899846	0.000000	
6.819569	-7.792389	-55.725026	9.018328	-1.581351	1.632559	-22.298637	-170.495050	0.000000	
1.939295	-8.726581	-61.414660	18.661844	-0.152052	0.693743	-1.491484	-312.651710	0.000000	
-0.179398	-9.412203	-63.653505	22.707976	0.467680	0.493520	6.401741	-365.852898	0.000000	
7.484197	-7.609839	-54.516075	7.641443	-1.980365	1.759836	-29.410834	-148.813554	0.000000	
6.110837	-8.023306	-56.413887	10.913087	-1.331956	1.542652	-18.320065	-202.239512	0.000000	
5.711579	-8.246938	-57.452077	11.601094	-1.358870	1.414819	-18.861616	-210.793337	0.000000	
2.692623	-8.410103	-60.724892	17.371091	-0.459360	0.838093	-5.864070	-294.645685	0.000000	
-0.088868	-9.144812	-64.171524	22.492932	0.406642	0.546217	5.471694	-359.321269	0.000000	
4.785943	-8.031345	-58.655925	12.504698	-1.023549	1.359139	-13.659347	-221.682662	0.000000	
9.791338	-7.541975	-53.664122	4.066774	-2.506317	2.135686	-37.253819	-84.480317	0.000000	
10.547323	-7.575950	-52.629460	1.998945	-2.635843	2.279752	-39.625870	-46.871046	0.000000	
8.900162	-7.594594	-54.006497	5.401754	-2.259615	1.902865	-33.380510	-108.723440	0.000000	
-1.155926	-9.288778	-64.859049	24.430680	0.655822	0.312916	8.324115	-385.521805	0.000000	
3.494546	-8.489352	-60.210116	15.734110	-0.707557	1.017018	-9.282366	-270.043903	0.000000	
2.742618	-8.498122	-60.031335	17.026117	-0.189692	0.982909	-1.383873	-292.376105	0.000000	
4.608996	-8.432912	-58.829991	13.279304	-0.929519	1.323041	-12.191690	-234.578989	0.000000	
7.880122	-7.780463	-55.213507	7.166309	-1.859569	1.704063	-26.459131	-138.512066	0.000000	
2.125443	-8.899259	-61.587917	17.842334	-0.216217	0.853551	-2.361752	-298.625420	0.000000	
-0.488772	-9.189332	-65.209154	22.707127	0.407920	0.400298	5.047605	-356.939599	0.000000	
-2.125666	-9.518464	-67.103791	26.539259	1.057921	0.219504	13.200682	-404.267307	0.000000	
8.286515	-7.644237	-54.693555	6.262475	-2.075619	1.937604	-30.236461	-123.155964	0.000000	
10.195860	-7.357161	-52.798313	2.128482	-2.666467	2.297438	-40.455175	-48.944678	0.000000	
11.880018	-7.210148	-51.076390	-0.497016	-3.311351	2.586274	-52.568260	0.997515	0.000000	
9.971287	-7.581186	-54.011606	3.290490	-2.509144	2.169983	-36.884620	-69.610227	0.000000	
2.659426	-8.317385	-61.414176	16.594476	-0.311904	1.015101	-3.436412	-278.617599	0.000000	
3.285672	-8.487684	-62.456572	16.119765	-0.463331	1.173408	-5.254128	-266.533385	0.000000	
5.010427	-8.071702	-60.215464	12.546807	-1.112367	1.391306	-14.591813	-216.699186	0.000000	
4.389411	-8.391251	-59.693454	13.968400	-0.956622	1.321550	-12.687165	-242.702325	0.000000	
9.389289	-7.768922	-52.970407	4.756066	-2.383461	2.030040	-35.837934	-98.829215	0.000000	
8.014723	-7.785259	-53.654485	7.469717	-1.980693	1.851400	-29.321792	-148.173015	0.000000	
10.190169	-7.540425	-51.241578	2.905189	-2.603601	2.265871	-40.439676	-65.765362	0.000000	
1.501149	-8.911897	-61.064544	19.782233	-0.179110	0.766729	-2.341215	-332.957543	0.000000	
-2.260936	-9.479848	-65.197938	26.713294	1.026457	0.242050	13.010565	-418.697105	0.000000	
4.387598	-8.127033	-58.653220	13.668283	-1.019398	1.341965	-13.970241	-241.622765	0.000000	
11.210239	-6.955461	-50.378408	1.141051	-2.731328	2.500520	-42.518317	-31.209005	0.000000	
12.452373	-7.073743	-50.387298	-1.012935	-3.282584	2.641785	-52.068154	11.413245	0.000000	
6.157090	-8.198532	-56.934450	10.783064	-1.452964	1.540925	-20.239557	-198.286783	0.000000	
2.480948	-8.636647	-59.855590	17.844911	-0.247709	1.055342	-2.600202	-307.041523	0.000000	
1.854547	-8.687716	-60.026738	18.921860	-0.243608	0.840516	-3.112234	-324.157295	0.000000	
5.662698	-8.170690	-54.506931	12.810890	-1.356366	1.512678	-19.842586	-244.255898	0.000000	
8.376965	-7.648798	-52.614322	6.221341	-2.198823	2.085746	-33.645431	-127.213825	0.000000	
6.684482	-8.022897	-53.647018	9.924800	-1.670233	1.673691	-24.929952	-194.205718	0.000000	
6.820199	-8.016526	-55.379354	9.578283	-1.458270	1.669564	-20.209765	-181.892532	0.000000	
-0.088504	-9.320984	-64.172661	22.363085	0.406157	0.527907	5.464344	-357.445540	0.000000	
-2.129361	-9.475167	-65.546076	26.023350	0.994011	0.186859	12.554909	-405.947475	0.000000	
6.560622	-7.880123	-57.800351	9.447447	-1.669313	1.645556	-23.299472	-171.911923	0.000000	
7.888506	-7.737378	-55.037426	7.166567	-1.830287	1.901699	-26.000687	-138.913379	0.000000	
11.566501	-7.260052	-51.248166	0.795109	-2.852208	2.515691	-43.778741	-24.276272	0.000000	
9.484027	-7.591263	-52.968037	4.541066	-2.354615	2.191426	-35.194547	-94.586362	0.000000	
11.607196	-7.128772	-50.209438	0.667062	-2.883681	2.500310	-45.249509	-22.064724	0.000000	
8.642004	-7.690437	-52.616501	5.962743	-2.169051	2.103556	-32.795623	-122.338220	0.000000	
8.067526	-7.955043	-55.559295	6.734941	-2.073252	1.899568	-29.956138	-130.067278	0.000000	
3.724068	-8.309979	-60.034993	15.131457	-0.740925	1.232204	-9.648446	-260.623248	0.000000	
5.990287	-8.017325	-57.796032	9.834351	-1.548275	1.663384	-21.760609	-178.752202	0.000000	
7.532189	-7.828544	-56.421565	8.199338	-1.673788	1.773813	-22.962739	-153.920690	0.000000	
7.985837	-7.912448	-55.729448	6.950396	-2.042756	2.042732	-29.402102	-133.495845	0.000000	
-1.509052	-9.467368	-65.896690	25.032345	0.809905	0.239038	10.218224	-388.746489	0.000000	
-2.123426	-9.609008	-66.064503	26.367692	0.874541	0.293130	10.646852	-408.094155	0.000000	
4.876186	-8.431860	-59.004251	13.322700	-1.019481	1.394422	-13.428608	-234.623074	0.000000	
10.634061	-7.226024	-51.069135	2.130645	-2.636679	2.373749	-40.733582	-50.472684	0.000000	
11.568437	-7.303476	-50.209216	-0.022962	-3.098915	2.552846	-49.579759	-8.517085	0.000000	
4.431792	-8.392934	-58.481799	13.882996	-0.836942	1.342417	-10.846600	-246.255172	0.000000	
2.698128	-8.455130	-60.723374	17.500142	-0.338312	0.963693	-3.865685	-296.819866	0.000000	
8.428708	-7.907955	-55.732366	6.390448	-2.104727	2.096167	-30.066696	-123.437277	0.000000	
10.767921	-7.180807	-51.069471	1.915676	-2.849153	2.409297	-44.746732	-46.213324	0.000000	
10.193253	-7.363326	-51.759044	3.034583	-2.572675	2.336728	-39.442399	-67.423940	0.000000	
8.464190	-7.866539	-54.002856	6.348916	-2.135992	1.992804	-31.546480	-126.552391	0.000000	
7.004958	-7.882588	-55.204285	9.148110	-1.611905	1.866833	-22.866608	-174.538285	0.000000	
6.292735	-8.107318	-57.107289	10.395095	-1.333497	1.612148	-17.955446	-190.805801	0.000000	
3.275793	-8.182900	-60.032632	15.993612	-0.707495	1.089658	-9.510895	-274.876127	0.000000	
6.693564	-7.968621	-56.762506	9.189192	-1.489659	1.701665	-20.414663	-170.578035	0.000000	
7.667047	-7.827860	-55.209837	7.381864	-2.041310	1.847239	-29.969211	-142.473682	0.000000	
9.617443	-7.500186	-52.968463	4.024135	-2.477621	2.208924	-37.375196	-84.729908	0.000000	
10.464049	-7.755440	-51.935610	1.999132	-2.758072	2.388428	-42.588173	-47.683896	0.000000	
7.709100	-7.521638	-54.861871	7.943606	-2.069393	1.884912	-30.623166	-153.298204	0.000000	
7.002119	-7.882913	-54.858792	9.062293	-1.703087	1.813725	-24.670675	-174.068396	0.000000	
3.684035	-8.839459	-60.902829	15.301531	-0.648791	1.229588	-8.046263	-260.201412	0.000000	
6.737811	-7.839254	-56.068707	9.578213	-1.488674	1.775641	-20.595692	-179.487551	0.000000	
7.670189	-8.005264	-55.729312	7.811763	-1.827445	1.900142	-25.856466	-149.045875	0.000000	
9.076681	-7.418203	-53.139984	5.273696	-2.200212	1.976909	-32.607726	-107.886999	0.000000	
9.491034	-7.369061	-52.618512	3.938364	-2.418773	2.353156	-36.634939	-83.518129	0.000000	
2.577420	-8.804529	-62.280608	16.980508	-0.400647	1.066285	-4.898341	-281.389985	0.000000	
-2.791946	-9.573685	-66.926321	28.305966	1.275828	0.149704	15.935106	-431.781238	0.000000	
6.696657	-8.105316	-55.549778	9.319498	-1.702227	1.811788	-24.666654	-176.768056	0.000000	
11.565327	-6.996356	-50.727202	0.753555	-3.094993	2.534934	-49.007648	-23.406408	0.000000	
12.056996	-7.122913	-51.249525	0.149515	-3.005568	2.658750	-46.233027	-11.528442	0.000000	
6.071713	-8.067010	-56.239404	10.568210	-1.364375	1.632168	-18.989927	-196.775730	0.000000	
1.245257	-9.043885	-62.446484	19.995694	0.063762	0.871025	1.352546	-329.144074	0.000000	
6.074226	-8.199455	-56.759097	10.653943	-1.545120	1.648541	-22.005202	-196.622873	0.000000	
6.694046	-8.286701	-55.897056	10.654828	-1.423672	1.794404	-19.537562	-199.746056	0.000000	
7.448523	-7.833489	-55.899415	8.803352	-1.702611	1.918872	-23.769471	-166.161192	0.000000	
6.652924	-8.195257	-55.896027	9.750120	-1.730391	1.811198	-25.066487	-183.472381	0.000000	
2.609436	-8.328083	-59.682242	18.104835	-0.306771	1.038588	-3.474287	-311.996026	0.000000	
2.927117	-8.717683	-60.897618	17.025483	-0.491474	1.105727	-6.160972	-288.420444	0.000000	
2.037344	-8.640028	-60.372523	18.447501	-0.154730	0.964920	-1.456865	-314.403810	0.000000	
5.144607	-8.389711	-57.445689	13.238047	-0.960629	1.577505	-12.484923	-239.451812	0.000000	
9.971952	-7.629898	-52.971513	3.679440	-2.629536	2.244298	-39.865456	-78.355291	0.000000	
10.900921	-7.447333	-50.725144	2.259965	-2.666160	2.446179	-41.290477	-53.603663	0.000000	
12.053081	-7.212017	-49.692731	-0.366871	-3.008896	2.608054	-47.728151	-1.573178	0.000000	
8.731160	-7.601228	-53.135844	6.049090	-2.289073	2.120389	-34.647406	-122.681275	0.000000	
9.757438	-7.187789	-53.485484	3.679602	-2.327905	2.387226	-34.075468	-77.149378	0.000000	
7.628556	-8.050709	-55.728397	7.984065	-1.827021	1.953962	-25.891186	-152.185876	0.000000	
10.417922	-7.272407	-52.278516	2.862291	-2.633280	2.425125	-39.976440	-63.368808	0.000000	
9.481302	-7.502573	-52.968341	4.498288	-2.415086	2.137706	-36.338886	-93.684246	0.000000	
11.040190	-7.267474	-50.550271	1.398863	-2.912364	2.589157	-46.146486	-36.552095	0.000000	
7.133565	-8.059737	-54.687857	9.105318	-1.793311	1.795991	-26.260278	-175.578084	0.000000	
1.512428	-8.996978	-62.620783	19.608309	-0.179289	0.923967	-2.295347	-322.001967	0.000000	
-4.256714	-9.765631	-68.996416	31.448980	1.802839	-0.139484	21.880454	-464.560313	0.000000	
7.226656	-8.143125	-55.554165	8.457749	-1.795389	1.829056	-25.806431	-161.280491	0.000000	
10.858229	-7.134373	-51.415755	1.699898	-2.758997	2.444319	-42.598645	-41.660158	0.000000	
11.923025	-7.434861	-50.211797	0.149190	-2.915857	2.624922	-45.535296	-12.092012	0.000000	
-0.876363	-9.503201	-65.205167	23.179817	0.620002	0.561491	7.966976	-364.480734	0.000000	
4.654465	-8.128409	-57.268720	13.497321	-1.081553	1.470608	-15.112796	-244.460539	0.000000	
3.682592	-8.622375	-59.169594	15.346578	-0.589818	1.305798	-7.263576	-268.355074	0.000000	
9.403113	-7.502017	-53.485010	4.325279	-2.446681	2.315361	-36.668204	-89.551803	0.000000	
9.848083	-7.541999	-52.967539	3.550013	-2.480004	2.423527	-37.176521	-75.824475	0.000000	
11.836210	-7.346951	-50.556575	0.235504	-3.036610	2.642042	-47.714971	-13.624800	0.000000	
0.713831	-9.094877	-62.789259	21.201628	0.279888	0.817445	4.308059	-346.603293	0.000000	
5.536464	-8.117604	-56.929651	11.946256	-1.116580	1.488392	-14.944118	-218.655751	0.000000	
6.825386	-7.928110	-55.377382	9.363324	-1.671421	1.776803	-24.054258	-177.927698	0.000000	
10.378448	-7.626068	-52.106039	2.645922	-2.695190	2.478439	-41.336832	-59.804242	0.000000	
9.087001	-7.549594	-54.350699	5.358758	-2.290254	2.135059	-33.544938	-107.202514	0.000000	
6.605859	-7.973318	-55.202698	9.276796	-1.612068	1.776972	-23.275834	-176.966645	0.000000	
8.508968	-7.734027	-54.002058	6.392457	-2.135837	2.028908	-31.497545	-127.222845	0.000000	
1.152797	-9.004210	-62.446169	20.901273	-0.022974	0.818083	-0.119500	-343.611831	0.000000	
9.271097	-7.458129	-53.657032	4.239195	-2.628714	2.296727	-40.083754	-87.617074	0.000000	
9.135828	-7.637941	-52.964372	4.669761	-2.234339	2.263033	-33.294926	-97.072126	0.000000	
8.200452	-7.735484	-54.865587	6.865469	-1.982511	1.991440	-28.535132	-133.856053	0.000000	
-0.610652	-9.194291	-64.858063	23.353711	0.620761	0.670628	8.255402	-368.840904	0.000000	
7.710289	-7.874866	-55.383232	8.200580	-1.886228	1.865683	-27.033877	-156.860531	0.000000	
0.088393	-9.013285	-63.305506	22.494097	0.466552	0.638237	6.660793	-364.127483	0.000000	
6.694558	-7.840719	-55.375372	9.449536	-1.580825	1.812858	-22.551639	-179.402434	0.000000	
7.581268	-7.566036	-55.379383	8.115068	-1.857142	1.955581	-26.641198	-155.014359	0.000000	
8.379239	-7.645983	-53.826703	6.220173	-2.076857	2.083000	-30.637067	-124.342162	0.000000	
7.310464	-7.746476	-55.380041	8.803915	-1.733210	1.812620	-24.677412	-167.633896	0.000000	
12.145597	-7.167631	-49.865038	-0.452570	-3.281592	2.696969	-52.930533	0.198008	0.000000	
9.134384	-7.771438	-53.485574	5.057279	-2.413440	2.208042	-36.328239	-103.519447	0.000000	
2.662166	-8.458199	-59.854432	17.543907	-0.309591	1.180776	-3.464234	-301.851233	0.000000	
9.171913	-7.376290	-52.445237	5.317816	-2.322144	2.175662	-35.252325	-110.101829	0.000000	
9.304633	-7.682060	-53.141108	5.057718	-2.261618	2.119708	-33.521900	-104.099076	0.000000	
7.183561	-8.013465	-55.725430	9.061655	-1.853416	1.883093	-26.814229	-171.493931	0.000000	
7.004427	-7.882609	-55.031383	8.976128	-1.824471	1.848929	-26.799153	-171.958963	0.000000	
3.541708	-8.668780	-59.171181	15.863611	-0.556886	1.127030	-6.840448	-277.129811	0.000000	
8.691153	-7.731654	-53.828696	5.875422	-2.138308	2.154337	-31.452441	-118.022286	0.000000	
11.129221	-7.176552	-51.762573	1.441581	-3.062213	2.568441	-47.882579	-36.441775	0.000000	
-0.037687	-8.925314	-62.263355	21.805164	0.431413	0.783348	6.107483	-359.064471	0.000000	
7.888951	-7.785543	-53.305449	7.081910	-2.013846	1.977119	-30.262953	-141.863035	0.000000	
9.615885	-7.371836	-51.582105	4.284321	-2.477819	2.266413	-38.364106	-91.889822	0.000000	
10.989182	-7.310835	-51.591304	1.871887	-2.787796	2.408042	-42.872182	-45.046770	0.000000	
7.890704	-7.916480	-55.557039	7.812571	-1.948110	1.936541	-27.883402	-149.430387	0.000000	
2.612119	-8.503274	-60.029137	17.931457	-0.216576	1.055343	-1.953736	-307.473274	0.000000	
6.289206	-8.111900	-55.895437	10.870279	-1.302111	1.615526	-17.769697	-203.430885	0.000000	
9.348745	-7.727215	-52.622072	5.015088	-2.352916	2.138679	-35.532734	-104.355875	0.000000	
1.159248	-9.135824	-61.752687	20.254714	0.003323	0.944325	0.319707	-337.110911	0.000000	
3.852283	-8.487266	-59.172348	14.959600	-0.923186	1.162055	-12.736228	-261.674649	0.000000	
8.773913	-7.466365	-52.270304	5.188006	-2.353921	2.103838	-36.402832	-108.080837	0.000000	
6.155997	-8.068636	-55.894573	10.827542	-1.544512	1.579365	-22.240429	-202.625981	0.000000	
6.473391	-8.018482	-56.067847	9.750147	-1.639725	1.739366	-23.554670	-182.736198	0.000000	
6.955677	-7.926644	-55.032753	9.018953	-1.763456	1.741447	-25.739498	-172.777780	0.000000	
7.450281	-7.875200	-55.726551	8.070711	-1.887498	1.918294	-27.156747	-153.569026	0.000000	
4.340160	-8.085154	-58.306891	14.056520	-0.927184	1.307474	-12.512665	-249.671326	0.000000	
10.591581	-7.359373	-51.242272	2.302550	-2.635958	2.391193	-40.631051	-53.805652	0.000000	
8.278508	-7.382810	-53.654539	6.781175	-1.922637	1.869483	-27.963887	-134.919140	0.000000	
3.640576	-8.531568	-59.861255	15.001557	-0.742168	1.303752	-9.773187	-259.414976	0.000000	
-3.991182	-9.891139	-68.480500	29.811273	1.493552	-0.176047	17.752370	-444.241961	0.000000	
8.950865	-7.333661	-52.270345	5.360926	-2.292396	2.158145	-35.035802	-111.246495	0.000000	
9.755109	-7.632744	-52.102878	3.550644	-2.662053	2.335613	-41.374562	-77.179147	0.000000	
9.792508	-7.410373	-51.584380	3.249660	-2.512027	2.229581	-38.833469	-71.870087	0.000000	
9.080555	-7.731509	-51.928153	5.403355	-2.322020	2.086807	-35.691836	-113.221179	0.000000	
10.056118	-7.052627	-52.277309	2.991628	-2.481661	2.228433	-37.465379	-65.608428	0.000000	
6.781429	-8.193007	-55.725077	9.491394	-1.549525	1.739979	-21.765902	-179.387554	0.000000	
4.164477	-8.222395	-57.786194	14.616838	-0.895492	1.344802	-12.240461	-261.743371	0.000000	
6.423694	-7.754295	-55.547844	9.794273	-1.579306	1.669358	-22.730313	-184.966764	0.000000	
-0.793687	-9.817466	-64.515851	24.085022	0.593810	0.491932	7.726430	-382.670384	0.000000	
0.441723	-8.741016	-63.999812	21.460431	0.040078	0.617843	0.226075	-343.796261	0.000000	
8.107734	-7.735720	-55.212592	7.123623	-1.890138	1.883419	-26.781908	-137.695760	0.000000	
10.551131	-7.091964	-51.932310	1.958040	-2.788549	2.443161	-43.083615	-46.178784	0.000000	
9.477889	-7.190249	-53.140993	4.024565	-2.386543	2.065662	-35.689879	-84.138299	0.000000	
9.219478	-7.991477	-53.141673	4.927416	-2.262489	2.136966	-33.627852	-101.972706	0.000000	
9.791559	-7.013539	-52.274564	3.767657	-2.539523	2.246933	-38.858166	-80.415132	0.000000	
12.230410	-7.297223	-50.041078	-0.841052	-3.282472	2.588543	-52.669585	7.812412	0.000000	
0.847434	-9.046142	-62.963503	20.253804	-0.086726	0.797946	-1.409632	-330.549384	0.000000	
0.794232	-9.048123	-63.658054	21.244460	0.130607	0.618330	1.964330	-342.515631	0.000000	
3.318602	-8.496821	-60.380668	17.328663	-0.459125	1.089987	-5.307435	-295.698704	0.000000	
2.172755	-8.897654	-61.587555	17.454455	-0.278541	0.906878	-3.330618	-292.327705	0.000000	
2.790788	-9.161370	-60.034684	17.024482	-0.310569	0.999725	-3.352284	-292.952490	0.000000	
8.997079	-7.110280	-53.481503	5.532746	-2.078965	2.191863	-30.220962	-111.723936	0.000000	
5.532298	-8.561909	-56.587037	12.333437	-1.205382	1.381342	-16.603258	-227.257481	0.000000	
8.146372	-7.828707	-53.309579	7.297541	-1.981362	1.852077	-29.380403	-145.942412	0.000000	
10.283270	-7.226356	-51.412717	1.914592	-2.729026	2.354453	-42.645637	-45.938838	0.000000	
11.116876	-7.221061	-50.900527	1.441759	-2.850106	2.337756	-44.526709	-37.097744	0.000000	
8.819328	-7.154914	-53.827448	5.532496	-2.290614	2.118961	-34.149071	-111.052993	0.000000	
-3.996131	-10.468667	-68.138798	30.413452	1.526789	-0.300869	18.329045	-455.778776	0.000000	
