NO_OF_SAMPLES	28800
FREQUENCY	960
TIME_STAMP	2020-02-08, 11:29:21	226839.36048560
FIRST_SAMPLE	1
DESCRIPTION	Force data in local (force plate) coordinates
DATA_INCLUDED	Force
FORCE_PLATE_TYPE	Amti
FORCE_PLATE_MODEL	Unknown
FORCE_PLATE_NAME	Embedded Force Plate
FORCE_PLATE_CORNER_POSX_POSY_X	0.000000
FORCE_PLATE_CORNER_POSX_POSY_Y	1200.000048
FORCE_PLATE_CORNER_POSX_POSY_Z	0.000000
FORCE_PLATE_CORNER_NEGX_POSY_X	600.000024
FORCE_PLATE_CORNER_NEGX_POSY_Y	1200.000048
FORCE_PLATE_CORNER_NEGX_POSY_Z	0.000000
FORCE_PLATE_CORNER_NEGX_NEGY_X	600.000024
FORCE_PLATE_CORNER_NEGX_NEGY_Y	0.000000
FORCE_PLATE_CORNER_NEGX_NEGY_Z	0.000000
FORCE_PLATE_CORNER_POSX_NEGY_X	0.000000
FORCE_PLATE_CORNER_POSX_NEGY_Y	0.000000
FORCE_PLATE_CORNER_POSX_NEGY_Z	0.000000
FORCE_PLATE_OFFSET_X	-0.787400
FORCE_PLATE_OFFSET_Y	-0.812800
FORCE_PLATE_OFFSET_Z	-56.108600
FORCE_PLATE_LENGTH	1200.150000
FORCE_PLATE_WIDTH	600.202000
Force_X	Force_Y	Force_Z	Moment_X	Moment_Y	Moment_Z	COP_X	COP_Y	COP_Z
-0.743306	2.578897	551.851375	78.079711	-24.101068	1.805722	42.961289	140.411841	0.000000	
-7.085865	1.588124	543.053293	90.736260	-22.114339	0.593273	40.666942	166.108483	0.000000	
-4.873108	2.223947	547.371836	86.907369	-22.644758	1.031632	41.082092	157.731322	0.000000	
4.659581	3.429819	556.668668	68.435882	-25.618311	2.599301	44.763697	121.779765	0.000000	
3.809238	3.374235	555.806174	70.804948	-25.275564	2.330571	44.303558	126.238010	0.000000	
3.685070	3.418584	555.809665	70.546048	-25.126530	2.491691	44.047671	125.766928	0.000000	
2.928904	3.056403	555.292127	72.009652	-25.060346	2.293848	44.046675	128.557233	0.000000	
-0.526620	2.446355	550.809258	78.983767	-23.883530	1.732677	42.627044	142.333859	0.000000	
5.808073	3.440781	557.179746	66.885755	-25.895010	2.689082	45.102867	118.884117	0.000000	
6.473143	3.621680	558.389196	65.939597	-26.110768	2.852757	45.323035	116.912238	0.000000	
6.738803	3.360638	558.731840	65.206290	-26.022798	2.852735	45.110634	115.553808	0.000000	
3.815842	3.288504	554.941358	70.588255	-25.155203	2.417878	44.156271	126.054194	0.000000	
5.362535	3.345159	556.662434	68.436322	-25.616310	2.599662	44.689758	121.790462	0.000000	
2.756260	2.748970	553.214166	72.394715	-24.906026	2.253046	43.953637	129.770397	0.000000	
-6.911287	1.276196	543.050153	91.511615	-22.110278	0.575784	40.641666	167.569455	0.000000	
0.003365	2.628684	550.979587	78.209020	-23.976617	1.786604	42.728600	140.864913	0.000000	
7.271184	3.675830	558.037818	64.647096	-26.295875	2.940658	45.603540	114.664768	0.000000	
7.095528	3.673263	557.866431	65.120902	-26.203452	2.958607	45.469787	115.549821	0.000000	
1.823263	2.560764	552.526094	74.461774	-24.625868	2.073678	43.597051	133.693233	0.000000	
-5.938645	1.287145	542.004164	90.606483	-22.201704	0.626751	40.789610	166.223303	0.000000	
-0.702898	2.094778	547.690441	79.885466	-23.876852	1.582200	42.880133	144.831391	0.000000	
-2.563950	1.676646	546.661256	83.157705	-23.472192	1.294862	42.413121	151.134369	0.000000	
5.717976	3.484350	554.929257	68.176970	-25.615160	2.613661	44.793784	121.691946	0.000000	
3.019510	2.573886	552.864414	72.480515	-24.964944	2.216333	44.061794	130.025966	0.000000	
3.504677	3.108816	553.729808	71.534928	-25.120159	2.308000	44.222850	128.059614	0.000000	
5.011836	3.123578	554.759255	69.166467	-25.430776	2.541740	44.546804	123.549627	0.000000	
-1.724080	1.731455	546.482077	81.821971	-23.475871	1.347527	42.347787	148.734322	0.000000	
-2.921821	1.675134	544.930780	84.190197	-23.164034	1.130621	42.021659	153.511768	0.000000	
7.491711	3.505557	555.956455	64.558700	-26.172583	2.846085	45.533195	114.955275	0.000000	
6.788916	3.187750	556.480421	65.290600	-26.232268	2.864933	45.667696	116.193544	0.000000	
7.008284	3.278672	556.305856	65.204308	-25.989918	2.864986	45.224507	116.065974	0.000000	
1.911019	2.388498	550.099400	74.804210	-24.561170	1.960638	43.666285	134.926659	0.000000	
-3.276133	1.404833	544.065909	85.395635	-23.098134	1.057521	42.005123	156.000576	0.000000	
-4.334493	1.175613	542.514066	86.944337	-22.790007	0.947121	41.669027	159.327518	0.000000	
0.851568	2.378557	549.414179	76.311260	-24.254101	1.888412	43.271021	137.839978	0.000000	
4.393938	2.942753	552.857768	70.370725	-25.243656	2.430422	44.426975	126.173951	0.000000	
4.217701	2.766810	552.857567	69.982107	-25.306138	2.375835	44.557894	125.488927	0.000000	
0.047045	2.191715	548.204459	78.507501	-24.062945	1.618358	43.101891	142.171311	0.000000	
-3.717853	1.401922	542.856974	86.342107	-22.700734	1.001955	41.414025	158.093598	0.000000	
-3.052224	1.542467	543.892327	84.490937	-23.252882	1.110150	42.280201	154.373047	0.000000	
6.341871	3.229585	554.231279	66.796715	-25.679777	2.682280	44.904614	119.381621	0.000000	
7.137086	3.191988	555.956857	65.203939	-26.019131	2.774514	45.292937	116.147428	0.000000	
5.629987	2.822452	554.232754	68.174477	-25.644588	2.503431	44.913070	121.908408	0.000000	
3.464522	2.538860	551.822037	71.359208	-25.088919	2.230785	44.325929	128.244670	0.000000	
1.636667	2.386265	548.886032	75.880585	-24.343433	1.725973	43.395910	137.187970	0.000000	
5.019019	3.082821	553.375311	69.035663	-25.279370	2.627999	44.385847	123.628404	0.000000	
7.678979	3.510036	555.265208	63.954610	-26.084297	3.041135	45.412938	114.011010	0.000000	
6.251658	3.182427	554.924037	67.012726	-25.740039	2.666027	44.965289	119.625602	0.000000	
0.318924	1.932218	546.297668	78.419073	-23.940332	1.685333	43.002715	142.535165	0.000000	
-5.087393	1.167746	541.307040	88.580619	-22.571665	0.838081	41.438380	162.708256	0.000000	
-0.475590	1.833658	546.823120	79.754235	-23.453067	1.687722	42.151076	144.849203	0.000000	
-5.485952	0.947538	538.710240	89.439290	-22.263683	0.671251	41.111734	165.113367	0.000000	
-0.167020	2.324914	546.477004	78.980112	-23.788218	1.704637	42.759885	143.474451	0.000000	
5.196782	2.955533	551.814415	68.732590	-25.399716	2.570050	44.713643	123.444119	0.000000	
-0.436766	2.012493	545.783026	79.797563	-23.784055	1.541916	42.835359	145.187792	0.000000	
3.469156	2.715153	549.573189	72.564739	-24.840136	2.316746	44.057376	130.948350	0.000000	
6.220021	3.277403	553.022715	66.278211	-25.651836	2.822222	44.966307	118.701858	0.000000	
2.090070	2.435654	548.886311	74.932740	-24.468531	1.994009	43.577452	135.456000	0.000000	
5.820262	3.227113	552.505728	67.613468	-25.343878	2.768550	44.492331	121.235526	0.000000	
7.493488	3.284157	554.570484	65.375847	-25.986311	2.843474	45.312893	116.740478	0.000000	
6.748738	3.410088	554.578558	66.021837	-25.743952	2.933628	44.950556	117.890855	0.000000	
-0.117787	2.107710	544.744639	78.978096	-23.756506	1.718176	42.835086	143.951975	0.000000	
-1.716691	2.087593	543.888858	82.467292	-23.259722	1.468177	42.155276	150.597104	0.000000	
0.014389	2.283537	546.130320	78.634985	-23.789348	1.793108	42.770960	142.938345	0.000000	
-4.644831	1.794501	540.614876	87.676661	-22.453265	0.908575	41.227500	161.180475	0.000000	
2.943851	2.932928	549.753263	72.564855	-24.751348	2.388879	43.934795	130.883176	0.000000	
6.755381	3.370094	553.886823	65.288371	-25.837699	3.002755	45.176257	116.718935	0.000000	
-3.577255	2.023423	542.515700	85.783559	-22.885021	1.216393	41.765719	157.099731	0.000000	
4.624255	3.346334	551.648799	69.767534	-25.245608	2.624773	44.506177	125.317766	0.000000	
5.778486	3.581416	552.162396	67.398976	-25.586922	2.821502	44.964900	120.886954	0.000000	
6.622678	4.031726	554.411495	65.204175	-25.748494	3.076569	44.985289	116.388883	0.000000	
2.723283	3.016387	549.929189	73.340952	-24.658067	2.425967	43.773368	132.243797	0.000000	
-2.684541	2.165568	544.417387	83.544301	-22.895339	1.524069	41.544026	152.420355	0.000000	
-4.987416	1.612127	540.966165	88.193320	-22.332124	1.124511	41.011815	162.049264	0.000000	
-5.610495	1.651056	540.449954	89.011614	-22.359378	0.962453	41.166855	163.714878	0.000000	
5.734757	3.885025	554.070540	67.745944	-25.375937	2.970350	44.430972	121.063307	0.000000	
7.241611	4.034415	554.580824	65.075886	-25.929325	3.166665	45.234762	116.121500	0.000000	
1.696637	3.137948	549.068244	75.365766	-24.529029	2.138894	43.713140	136.127737	0.000000	
-6.670705	1.773292	539.246602	90.906373	-21.959433	0.889679	40.629118	167.583024	0.000000	
1.876311	3.136968	550.107763	75.194342	-24.530660	2.266720	43.613687	135.557446	0.000000	
7.908498	4.257748	556.310851	64.216649	-26.145419	3.403443	45.412821	114.190803	0.000000	
6.756833	4.026657	555.450961	65.809012	-25.898027	3.204969	45.155289	117.258977	0.000000	
6.086024	4.063676	555.453908	66.972188	-25.591413	3.008982	44.670801	119.348710	0.000000	
-1.799453	2.526282	545.452771	82.211018	-23.233070	1.687240	41.991802	149.648021	0.000000	
-2.508284	2.339015	544.937299	84.020202	-23.226183	1.597464	42.092615	153.129613	0.000000	
-3.665891	2.548120	544.078872	86.131168	-22.885560	1.346577	41.653594	157.230823	0.000000	
2.809645	3.323700	551.315676	73.213840	-24.750505	2.483301	43.820184	131.647340	0.000000	
3.116607	3.811688	551.142939	73.215484	-24.810185	2.519606	43.911197	131.642159	0.000000	
0.061042	3.072948	548.041694	79.026845	-23.759902	2.050090	42.560537	143.071191	0.000000	
-7.251061	1.582877	540.114989	92.932370	-21.952327	0.803495	40.609663	171.083110	0.000000	
0.989921	3.212945	549.594701	77.434754	-24.129231	2.195986	43.015220	139.753476	0.000000	
1.525731	3.442994	549.246867	75.970142	-24.376515	2.319563	43.438449	137.152412	0.000000	
5.152197	4.315955	554.249232	69.600577	-25.308531	2.865435	44.353752	124.326597	0.000000	
7.414395	4.606120	556.314385	65.036121	-26.021509	3.243340	45.239628	115.627975	0.000000	
5.730086	4.368701	554.592110	68.006712	-25.556659	2.954460	44.714783	121.369952	0.000000	
3.108820	3.941864	552.873476	73.044771	-24.811986	2.434165	43.775335	130.905580	0.000000	
6.750793	4.554655	556.665123	65.854499	-25.838291	3.190836	44.948380	117.029941	0.000000	
6.480299	4.594918	555.800273	67.017627	-25.681396	3.064573	44.764567	119.301953	0.000000	
6.841547	4.377157	555.971651	66.327992	-25.956494	3.225215	45.208874	118.046490	0.000000	
4.443281	4.221397	553.560461	70.633608	-25.183833	2.738913	44.256509	126.358044	0.000000	
1.071086	3.568432	549.767817	77.220190	-24.008677	2.089418	42.773862	139.282650	0.000000	
-0.292726	2.983402	546.484708	79.585659	-23.877679	1.938945	42.935879	144.512885	0.000000	
-8.323284	1.791111	538.216472	95.904770	-21.545962	0.497380	40.112444	177.190436	0.000000	
-1.892654	2.565649	545.626164	83.202672	-23.138076	1.634990	41.813691	151.413620	0.000000	
-7.126472	1.762262	538.727570	93.491941	-21.614866	0.640245	40.076896	172.545811	0.000000	
-6.498709	1.899840	540.285103	91.985528	-21.894634	0.929431	40.411714	169.243584	0.000000	
3.205273	3.591557	550.967951	73.343711	-24.536971	2.519346	43.420485	131.939375	0.000000	
7.632323	4.343597	555.098187	65.465350	-25.775610	3.151275	44.875460	116.682876	0.000000	
6.261607	4.064523	554.067322	67.747014	-25.404781	2.988870	44.429942	121.047770	0.000000	
6.126202	3.973105	555.106147	67.876610	-25.284267	2.955536	44.141907	121.062421	0.000000	
4.349135	3.910859	552.345604	71.708820	-24.754135	2.575796	43.587193	128.615925	0.000000	
-0.565469	2.803417	545.444604	80.833761	-23.508208	1.740590	42.369936	147.096748	0.000000	
7.317834	4.161963	554.405495	66.671022	-25.679186	3.007120	44.790418	119.022772	0.000000	
7.804871	4.078971	555.440438	65.379045	-25.926613	3.061994	45.101756	116.481828	0.000000	
5.588187	3.658445	552.854677	69.684256	-25.335149	2.664442	44.471516	124.860344	0.000000	
7.441652	4.073501	555.613747	66.413155	-25.680335	2.866375	44.680867	118.306997	0.000000	
6.828312	3.668281	554.751656	67.747274	-25.584719	2.882627	44.641201	120.937990	0.000000	
4.383591	3.154386	551.819117	73.301557	-24.775688	2.342110	43.665084	131.702668	0.000000	
7.838998	3.676802	555.955021	66.412797	-25.740025	2.884725	44.720219	118.273267	0.000000	
7.309440	3.674369	553.361257	67.660531	-25.672912	2.772005	44.865940	121.086531	0.000000	
-2.003131	1.896536	544.231896	85.656812	-22.912368	1.131676	41.519494	156.381956	0.000000	
-5.852701	0.841622	538.711012	93.275311	-21.823506	0.531807	40.332778	172.244901	0.000000	
-2.315513	1.406272	543.537670	86.646133	-22.877371	0.986775	41.541389	158.453492	0.000000	
2.429708	2.161739	549.746628	77.174558	-24.124968	1.873085	42.848411	139.348617	0.000000	
3.353048	2.127018	549.391436	76.355877	-24.125569	1.836202	42.783419	137.952620	0.000000	
3.932321	2.217828	550.082923	75.883368	-24.339185	2.034753	43.057895	136.909943	0.000000	
7.607880	2.830517	554.910153	68.392372	-25.517963	2.596387	44.429101	122.150449	0.000000	
1.136649	1.615945	545.420420	81.823538	-23.437052	1.436483	42.066288	149.040170	0.000000	
8.757458	2.796281	555.940866	66.756413	-25.856105	2.723014	44.837482	118.983245	0.000000	
10.307208	2.812087	557.142552	64.129401	-26.228236	2.921042	45.250930	114.008117	0.000000	
8.975759	2.974115	555.766787	66.972270	-25.672913	2.723434	44.500114	119.391211	0.000000	
2.816916	1.631003	548.352394	78.637890	-23.933765	1.655941	42.571054	142.427892	0.000000	
3.619323	1.331017	549.385179	76.612958	-24.365500	1.817268	43.193445	138.503438	0.000000	
5.652951	2.100667	551.800613	73.385895	-24.710273	2.144488	43.418956	131.967098	0.000000	
6.759626	1.895047	552.829913	70.585142	-24.962744	2.216015	43.681017	126.674537	0.000000	
3.969704	1.245654	549.381474	76.612319	-23.910707	1.799956	42.330130	138.511932	0.000000	
4.193717	1.335264	550.767076	75.623016	-24.369789	1.909551	43.032368	136.356067	0.000000	
4.633685	1.430294	550.590416	74.804146	-24.311494	1.890921	42.895715	134.903137	0.000000	
6.142478	1.755788	551.968341	71.876555	-24.746132	2.179008	43.420726	129.227340	0.000000	
8.270578	1.910401	553.860345	68.001172	-25.304868	2.521169	44.062927	121.770415	0.000000	
9.693324	2.016736	554.891386	64.727536	-25.740918	2.789782	44.621558	115.632295	0.000000	
1.052621	0.380877	545.240792	81.431229	-23.105752	1.362457	41.481431	148.497119	0.000000	
-2.094170	-0.046557	541.275543	87.113614	-22.236739	0.801392	40.511787	160.133371	0.000000	
5.755021	1.358498	549.893028	72.218205	-24.683734	2.227354	43.513631	130.379955	0.000000	
4.425617	0.993104	548.859734	74.283549	-24.071455	1.993232	42.617387	134.427267	0.000000	
3.445089	0.937800	547.652326	76.609135	-23.668574	1.741526	42.077888	138.977560	0.000000	
-1.380474	0.007150	541.964784	85.218374	-22.486490	0.980609	40.846203	156.426148	0.000000	
-2.178005	-0.530681	540.581167	86.766968	-22.419332	0.780501	40.911310	159.749108	0.000000	
4.561533	0.598901	547.644829	74.281288	-23.888583	1.990045	42.365827	134.763546	0.000000	
6.554628	0.884743	550.057775	70.191519	-24.781584	2.279228	43.596688	126.704490	0.000000	
8.772462	1.479410	553.511244	66.016817	-25.343311	2.768838	44.109793	118.306387	0.000000	
8.812632	1.393159	553.162663	65.929836	-25.191598	2.660500	43.859745	118.232958	0.000000	
-1.998487	-0.441185	541.447169	86.250686	-22.392046	0.889824	40.775618	158.529505	0.000000	
7.448796	1.068341	551.787418	68.513126	-24.940730	2.640699	43.655057	123.244365	0.000000	
3.103262	0.099596	545.920446	76.518948	-23.759374	1.771552	42.415331	139.341980	0.000000	
-2.709931	-0.669957	540.410986	88.058436	-21.839983	0.727675	39.907615	162.203919	0.000000	
4.698786	0.468748	548.509864	73.290463	-24.105420	2.080357	42.679051	132.756652	0.000000	
-0.091683	-0.597960	543.338701	82.675623	-22.798570	1.178080	41.182212	151.411169	0.000000	
-1.770412	-0.614520	540.927023	86.033859	-22.029577	1.031981	40.121838	158.299862	0.000000	
6.339500	0.704562	551.445355	69.933206	-24.754734	2.407277	43.458205	125.933528	0.000000	
9.524689	1.268162	554.543249	64.163943	-25.410991	2.823338	44.072175	114.764818	0.000000	
8.245947	0.856814	552.819359	66.660456	-25.189846	2.712949	43.941817	119.682946	0.000000	
3.454841	-0.075159	547.474858	75.786954	-23.672214	1.792516	42.097432	137.624921	0.000000	
1.997583	-0.091987	546.793551	78.371296	-23.331216	1.721114	41.676769	142.525499	0.000000	
4.211076	0.284600	548.512293	74.539360	-23.828748	2.027537	42.224345	135.051778	0.000000	
2.394163	0.089375	546.791370	77.768731	-23.423619	1.738879	41.805236	141.405458	0.000000	
6.651113	0.752875	549.885694	70.233660	-24.418768	2.458268	42.940930	126.834488	0.000000	
5.404668	0.563229	549.890877	71.956321	-24.322539	2.154381	42.892704	129.985368	0.000000	
1.910355	0.040199	545.929608	78.844862	-23.147256	1.737780	41.415969	143.606197	0.000000	
6.607400	0.841261	550.925432	69.545310	-24.695114	2.477772	43.364459	125.335140	0.000000	
9.535068	1.400500	554.547149	63.991959	-25.442992	3.056235	44.128515	114.440483	0.000000	
6.561832	0.881320	551.792107	70.063226	-24.542546	2.516368	43.023249	126.071538	0.000000	
-0.043305	-0.420812	543.687132	82.460655	-22.648987	1.304556	40.875196	150.899944	0.000000	
-2.030505	-0.885004	541.794977	86.464470	-21.878285	1.141532	39.803995	158.867761	0.000000	
-1.673326	-0.835312	542.832177	84.871237	-22.309078	1.231849	40.483120	155.622482	0.000000	
5.149598	0.825961	549.897370	71.999974	-24.324016	2.369623	42.920901	130.036399	0.000000	
7.909335	1.120328	553.520912	66.100616	-24.953438	3.072758	43.492148	118.492099	0.000000	
2.633640	0.317231	548.180888	75.356659	-23.708766	2.134104	42.192931	136.621505	0.000000	
1.132352	0.033062	547.498624	78.500392	-23.093140	2.063121	41.275912	142.563884	0.000000	
-3.962906	-0.854977	540.599712	87.927427	-21.755346	1.156862	39.866892	161.923873	0.000000	
1.086977	-0.051713	546.458349	78.154520	-23.214499	1.952527	41.582728	142.212596	0.000000	
7.336009	1.117575	553.351738	66.229054	-24.833127	3.018458	43.346397	118.760960	0.000000	
0.998523	0.081565	546.979014	77.680917	-23.187045	1.953460	41.501278	141.196928	0.000000	
-2.991818	-0.669421	543.364038	85.560363	-22.098667	1.287078	40.191634	156.720487	0.000000	
-3.426738	-0.846878	542.328581	85.687754	-21.977642	1.320128	40.091714	157.274519	0.000000	
3.793981	0.507708	551.120763	71.868739	-23.906533	2.514724	42.204371	129.540214	0.000000	
7.787202	1.254939	555.949312	64.162704	-24.965394	3.309648	43.332566	114.471614	0.000000	
5.395115	1.056678	552.500279	68.338520	-24.495244	2.892022	42.999965	122.769456	0.000000	
2.818320	0.759019	551.821891	73.679506	-23.659581	2.464396	41.801430	132.630472	0.000000	
4.293524	0.869169	552.508032	69.586816	-24.220391	2.856685	42.613756	125.046092	0.000000	
3.889116	0.685348	553.374085	70.405768	-24.217943	2.715682	42.582413	126.347679	0.000000	
5.925983	0.971035	555.266954	66.918355	-24.563330	3.022764	42.850766	119.604724	0.000000	
5.571452	1.233946	555.270501	66.876219	-24.927290	2.968735	43.541776	119.501503	0.000000	
-0.758423	0.507380	547.170637	79.189082	-22.853283	2.080563	41.056654	143.859827	0.000000	
-6.034790	-0.783441	542.001357	88.831570	-21.394999	1.106370	39.311398	163.163778	0.000000	
-3.906903	-0.276194	543.722527	85.215792	-21.982968	1.484708	40.046257	155.942318	0.000000	
-1.686746	0.411266	546.830130	80.178918	-22.639011	1.972678	40.786118	145.769910	0.000000	
1.772163	0.844399	550.793868	73.333432	-23.935956	2.568180	42.489266	132.242519	0.000000	
-3.161207	0.391696	546.663728	83.453390	-22.263763	1.580747	40.263676	151.806459	0.000000	
-1.687060	0.229125	548.734369	80.266674	-22.942843	2.030434	41.195575	145.439782	0.000000	
6.196565	1.813179	557.695982	65.112873	-25.087939	3.278487	43.574151	115.758127	0.000000	
3.799915	1.610910	555.978033	69.591247	-24.224620	2.865692	42.400299	124.193688	0.000000	
6.239021	1.945816	557.349805	65.371599	-25.025826	3.260303	43.485986	116.281386	0.000000	
5.793307	1.852442	557.870872	65.845473	-24.964424	3.154080	43.379397	117.030842	0.000000	
-3.817293	0.119058	546.322508	84.357327	-22.382507	1.633575	40.574048	153.584365	0.000000	
-4.092757	0.422972	546.670254	85.349712	-22.227232	1.474585	40.291972	155.270285	0.000000	
1.190803	1.495458	553.918182	74.026647	-23.664919	2.595064	41.814749	132.677562	0.000000	
0.746020	1.094854	552.012958	75.144594	-23.719271	2.393613	42.105457	135.204230	0.000000	
-0.768624	1.296885	551.156762	78.591364	-23.131483	2.090319	41.259819	141.648661	0.000000	
-11.000152	-0.751049	539.783294	97.704966	-20.245637	0.444842	37.862999	180.273031	0.000000	
-2.050977	0.888100	549.430795	80.570625	-23.002937	1.871825	41.288899	145.740315	0.000000	
3.223820	1.912213	556.849736	70.196294	-24.496428	2.850199	42.878858	125.054194	0.000000	
3.662512	2.046875	557.366335	70.025015	-24.466209	2.869718	42.740006	124.616676	0.000000	
4.816465	2.196150	558.398266	66.837537	-24.871929	3.030838	43.270194	118.661630	0.000000	
1.093669	1.849316	554.437741	73.726335	-23.787282	2.435099	42.005354	131.975009	0.000000	
-8.660373	0.023527	542.367744	93.573544	-20.895889	0.699803	38.635686	171.712622	0.000000	
1.318750	1.981525	555.477524	73.383074	-23.910709	2.598684	42.124715	131.095135	0.000000	
1.494321	1.364825	554.952429	73.424174	-23.909168	2.507108	42.144791	131.356358	0.000000	
-1.122119	1.470058	552.026141	78.506228	-23.284815	2.092143	41.507292	141.252475	0.000000	
2.385019	2.081608	556.510788	71.229902	-24.161049	2.814611	42.387376	126.971077	0.000000	
2.692852	2.172511	556.508710	70.928993	-24.373263	2.814433	42.737833	126.421681	0.000000	
4.019030	2.407262	558.751468	68.044713	-24.778124	2.978984	43.154537	120.725396	0.000000	
4.199832	2.451814	559.444449	67.657807	-24.931678	3.105678	43.356449	119.878788	0.000000	
5.698301	2.775532	560.992975	65.376412	-25.060350	3.215989	43.314090	115.446555	0.000000	
4.326581	2.627894	560.135937	67.745112	-24.870775	3.054085	43.180528	119.868021	0.000000	
-6.177607	0.756495	548.070328	87.117044	-21.983255	1.210233	39.955313	158.062063	0.000000	
-2.848207	1.582754	552.212434	81.263389	-22.672053	1.969528	40.558756	146.186033	0.000000	
2.111152	2.431626	557.551436	71.317870	-24.282674	2.674055	42.552494	126.855125	0.000000	
-6.575230	1.236062	547.037928	88.669086	-21.825580	1.245756	39.784754	161.149886	0.000000	
-5.686081	1.247159	549.283667	85.955777	-21.958818	1.445961	39.770617	155.546847	0.000000	
-3.385446	1.620837	552.560846	81.910246	-22.851686	1.791336	40.912330	147.260129	0.000000	
-7.202148	1.226547	547.733280	90.048181	-21.518490	1.087422	39.236810	163.463070	0.000000	
-4.268675	1.832441	551.183676	83.719501	-22.723798	1.735944	40.874406	150.891049	0.000000	
4.897846	3.383436	561.174839	66.886703	-25.086012	3.146578	43.425561	118.039398	0.000000	
3.574263	3.239115	559.452514	69.081683	-24.594134	3.036553	42.815205	122.343213	0.000000	
-2.100829	2.649858	553.771035	79.631068	-23.314239	2.080533	41.526321	142.716535	0.000000	
-1.127798	2.611989	556.015669	78.210812	-23.229652	2.264327	41.105180	139.586583	0.000000	
1.439780	2.907034	556.518760	73.731661	-23.969918	2.531256	42.138617	131.381399	0.000000	
5.380117	4.092706	561.694689	66.674050	-25.177130	3.220567	43.498686	117.479958	0.000000	
2.643058	3.181945	558.939249	71.321827	-24.374154	2.929563	42.555157	126.469892	0.000000	
0.330338	3.160008	556.354156	75.498567	-23.782956	2.389097	41.927157	134.570864	0.000000	
2.013554	3.483346	558.250276	73.002716	-24.215666	2.696883	42.388017	129.607682	0.000000	
-1.839170	3.047265	554.290690	79.805336	-23.313328	2.118552	41.458522	142.856144	0.000000	
4.625094	4.215264	561.007704	68.526929	-25.018753	3.113107	43.346122	120.915326	0.000000	
5.389630	4.401031	562.219057	66.416807	-25.240272	3.472816	43.568741	116.881309	0.000000	
-2.501174	3.304605	552.739296	81.614703	-23.124336	2.098868	41.302377	146.506718	0.000000	
-4.279578	2.753289	552.053655	85.188312	-22.385251	1.723295	40.196609	153.219019	0.000000	
-8.396335	2.049371	546.362594	93.152333	-21.385992	1.087775	39.217349	169.472184	0.000000	
-0.954569	3.452773	555.326228	78.471788	-23.409083	2.282051	41.462797	140.145891	0.000000	
2.456463	4.192496	558.079091	72.919249	-24.487559	2.840793	42.843924	129.426830	0.000000	
-1.046110	3.541095	553.767947	79.160657	-23.495306	2.171520	41.746664	141.777561	0.000000	
-0.777637	3.851674	554.288819	78.946330	-23.284906	2.334657	41.299934	141.225457	0.000000	
-0.243286	3.813536	554.631946	77.783467	-23.622046	2.441763	41.827701	139.044803	0.000000	
2.761006	4.901770	559.465397	72.146708	-24.551972	2.880358	42.820401	127.652117	0.000000	
5.738124	5.244519	562.047190	66.031650	-25.422431	3.473339	43.871613	116.147820	0.000000	
5.512967	4.843167	561.525781	66.935353	-25.387716	3.328959	43.873758	117.905897	0.000000	
0.099234	4.522700	555.843058	77.269538	-23.714767	2.355764	41.867084	137.743892	0.000000	
-0.782585	4.116879	553.942703	79.119484	-23.434748	2.244667	41.597232	141.599929	0.000000	
-1.662472	4.152417	553.950484	80.067027	-23.281853	2.263134	41.409750	143.304848	0.000000	
-1.844097	4.325963	553.259169	81.058219	-23.156027	2.173170	41.253470	145.258878	0.000000	
-0.429839	4.561735	553.596526	78.948599	-23.585745	2.298171	41.860741	141.335214	0.000000	
-6.862377	3.784623	548.610514	91.263855	-21.604318	1.220096	39.294509	165.154682	0.000000	
-7.472577	3.430764	546.363127	91.648423	-21.572165	1.196292	39.463195	166.577572	0.000000	
2.140342	5.559571	557.915042	73.482927	-24.334610	2.825035	42.614403	130.337970	0.000000	
3.032233	5.656028	559.816348	71.459637	-24.585868	3.114682	42.826428	126.268671	0.000000	
5.377068	5.681251	560.492368	67.755698	-25.232445	3.328644	43.692679	119.504505	0.000000	
2.805366	5.829660	559.124909	72.364695	-24.551144	2.988673	42.841025	128.027107	0.000000	
-2.420621	4.628659	552.745412	82.222052	-23.061102	2.119508	41.179334	147.469469	0.000000	
-0.431258	5.134357	554.812170	78.735787	-23.678778	2.373263	41.935121	140.582269	0.000000	
1.965337	5.469702	557.742986	73.611904	-24.455374	2.824365	42.861920	130.618716	0.000000	
1.698073	5.601457	557.225443	73.913049	-24.242339	2.752014	42.547058	131.267957	0.000000	
0.633053	5.496481	557.232394	76.670523	-23.809108	2.646838	41.876286	136.225399	0.000000	
-7.428831	3.606038	547.056654	91.563690	-21.815223	1.233717	39.851983	166.192500	0.000000	
2.670900	5.961647	558.260338	72.881366	-24.397066	2.933657	42.646109	129.138875	0.000000	
5.377805	6.122961	561.188009	67.369733	-25.386310	3.402067	43.911646	118.623434	0.000000	
4.129047	5.843092	559.634032	70.426946	-24.980162	3.042199	43.435227	124.446019	0.000000	
4.442488	6.332116	560.501904	69.567212	-25.075366	3.223404	43.505232	122.669253	0.000000	
3.908539	5.930032	560.501858	69.996821	-25.164897	3.043609	43.718419	123.475986	0.000000	
-1.409918	4.901501	554.296856	80.802808	-23.398730	2.158378	41.568675	144.466379	0.000000	
-2.028033	5.290972	554.650709	81.795104	-23.305778	2.196278	41.436594	146.123342	0.000000	
-2.065785	5.029693	552.745743	81.706606	-23.335051	2.209126	41.638905	146.496153	0.000000	
-3.942237	4.695227	551.713580	86.401565	-22.681030	1.672778	40.723675	155.315534	0.000000	
-2.643514	4.802088	552.574566	82.782825	-23.149698	2.083837	41.375274	148.512542	0.000000	
0.803926	5.409340	557.401935	76.455520	-24.141901	2.521258	42.443153	135.806765	0.000000	
3.552146	6.275960	560.853025	71.333676	-24.767105	3.064380	43.016945	125.747168	0.000000	
-1.717151	5.432289	554.994947	79.856538	-23.707062	2.195168	42.102016	142.524973	0.000000	
5.059542	6.559604	560.498180	68.620607	-25.501411	3.240745	44.203874	120.958438	0.000000	
5.194995	6.339207	561.708950	68.103388	-25.292939	3.332672	43.722226	119.797178	0.000000	
0.454354	5.451669	556.193548	77.014772	-24.109255	2.536706	42.513645	137.104813	0.000000	
-3.709559	4.874887	552.409016	85.411362	-22.747093	1.960441	40.767372	153.308216	0.000000	
1.292729	5.947135	557.228902	75.207459	-24.479186	2.627882	43.012649	133.555273	0.000000	
-3.405154	5.010526	552.925506	84.723241	-23.142645	1.889320	41.413047	151.905977	0.000000	
0.634246	5.629785	556.367560	76.756920	-24.110514	2.644743	42.484224	136.580258	0.000000	
5.061970	6.383007	561.882913	67.845266	-25.566688	3.296675	44.208927	119.296075	0.000000	
4.749353	6.332038	562.230999	69.051732	-25.199334	3.262971	43.558881	121.372655	0.000000	
5.236778	6.119552	561.360025	68.059491	-25.352828	3.241863	43.852401	119.815903	0.000000	
3.514170	5.922769	560.506240	71.074312	-25.161513	3.116060	43.751511	125.398095	0.000000	
-0.917504	5.216462	554.816429	79.597801	-23.645991	2.356028	41.924873	142.126573	0.000000	
-4.604713	4.557769	551.890481	86.745387	-22.560199	1.601336	40.558780	155.902455	0.000000	
-7.034009	3.868443	548.960499	91.652708	-21.876220	1.346426	39.781800	165.748646	0.000000	
-2.645710	4.932899	552.921278	82.913207	-23.391318	2.066810	41.786048	148.641439	0.000000	
4.707346	6.023437	562.056497	68.792324	-25.412101	3.243663	43.955394	120.979863	0.000000	
2.008227	5.509785	559.821216	73.570592	-24.427170	2.901043	42.645201	130.052990	0.000000	
5.243490	5.897879	562.572705	67.456413	-25.447814	3.387032	43.924348	118.505984	0.000000	
4.671494	6.064804	563.618326	68.448742	-25.385745	3.479986	43.788216	120.028648	0.000000	
1.120535	5.191202	559.131879	75.077215	-24.391279	2.702774	42.723637	132.940876	0.000000	
-1.005415	5.036472	556.547936	79.297004	-23.770102	2.395208	42.023852	141.159544	0.000000	
-1.526662	4.723038	556.032704	79.726311	-23.739354	2.483175	42.060821	142.094815	0.000000	
-5.074324	4.115713	551.894995	85.881706	-22.747678	1.796348	40.945886	154.381177	0.000000	
-8.711914	3.501971	548.623835	93.071849	-21.449992	1.166609	39.201394	168.475066	0.000000	
-2.905414	4.178631	554.824685	82.308661	-23.335947	2.123222	41.566457	147.115377	0.000000	
3.875612	5.529780	563.619972	68.747988	-25.234681	3.317853	43.599292	120.612492	0.000000	
3.122908	5.123841	562.930042	70.254068	-24.926480	3.191443	43.181221	123.477203	0.000000	
3.520180	5.129375	563.446077	69.091267	-25.233440	3.191473	43.646183	121.299090	0.000000	
3.567792	5.438910	564.314531	68.575631	-25.297366	3.318910	43.686348	120.166649	0.000000	
-2.675976	4.006223	556.728804	80.585172	-23.224359	2.323118	41.198040	143.531066	0.000000	
0.863254	4.839061	561.383928	73.138114	-24.705301	2.794722	43.134173	128.985360	0.000000	
0.690936	4.481539	561.038425	74.041597	-24.399276	2.866129	42.632992	130.711426	0.000000	
-4.186832	3.370986	556.387086	82.952849	-23.185945	1.964387	41.307147	147.939228	0.000000	
-5.152673	3.362018	555.183835	84.502658	-22.848218	1.998560	40.887674	151.054049	0.000000	
2.288670	4.811296	563.280891	69.692588	-25.203598	3.136614	43.728904	122.434116	0.000000	
0.693833	4.218436	561.902883	73.050203	-24.585927	2.884519	42.898080	128.771003	0.000000	
-5.067876	3.189192	555.180435	83.769329	-22.971686	1.872090	41.101752	149.751562	0.000000	
1.228463	4.223905	562.766023	71.844483	-24.742345	3.028907	43.055719	126.429220	0.000000	
-1.031980	3.756555	561.566050	76.021208	-24.092422	2.688227	42.217915	134.185448	0.000000	
-6.172466	2.558189	554.492128	85.705812	-22.722959	1.727602	40.816955	153.494666	0.000000	
-0.056526	3.854971	562.945578	73.911537	-24.554607	2.850981	42.836317	130.097261	0.000000	
-2.317516	3.346804	561.051908	77.656615	-24.026735	2.436371	42.268807	137.265031	0.000000	
-2.447861	3.212570	560.706399	78.000753	-24.025355	2.453514	42.305921	137.977305	0.000000	
2.556268	4.147226	566.219603	68.658944	-25.421875	3.231105	43.856845	120.034746	0.000000	
1.717121	3.830842	564.838386	70.078549	-25.204500	3.102996	43.664528	122.874980	0.000000	
0.163584	3.765264	565.367896	73.223777	-24.650043	2.927632	42.796371	128.328798	0.000000	
-4.528196	2.835106	560.026201	81.703897	-23.347675	2.221378	41.356603	144.796143	0.000000	
-3.642447	3.024184	559.847632	79.808876	-23.837776	2.291111	42.156692	141.438750	0.000000	
-2.532483	3.255416	561.920590	77.570545	-23.968459	2.563525	42.120002	136.907528	0.000000	
-14.141153	0.794886	548.820988	99.525443	-20.859282	0.592954	38.665760	180.450025	0.000000	
-3.202870	3.158406	562.096079	78.820017	-23.933816	2.367541	42.111893	139.097094	0.000000	
0.526240	3.504514	566.231731	71.845122	-25.080081	3.106863	43.453416	125.722830	0.000000	
3.183776	4.153071	568.641770	66.506323	-25.826030	3.503514	44.315501	115.733862	0.000000	
1.808613	4.005657	567.091238	69.391291	-25.300570	3.269177	43.648291	121.154415	0.000000	
-9.439126	1.680233	554.858656	90.657628	-22.074257	1.533399	39.950674	162.405978	0.000000	
-6.787563	2.016898	557.957946	85.577547	-22.970296	1.805856	41.063669	152.360719	0.000000	
2.388644	4.056353	568.993400	67.367794	-25.703485	3.450884	44.150663	117.185401	0.000000	
1.150251	3.425014	566.747187	70.121679	-25.298689	3.231864	43.737126	122.574679	0.000000	
0.926390	3.509074	567.268330	70.639449	-25.267035	3.197790	43.662564	123.365751	0.000000	
-4.604643	2.437112	561.239518	80.669585	-23.747514	2.419210	41.985558	142.678239	0.000000	
-2.971903	2.806260	562.614609	78.173314	-24.149015	2.564594	42.431820	137.853807	0.000000	
-1.771171	2.950180	565.552707	75.245850	-24.464922	2.891856	42.646748	131.942854	0.000000	
2.571342	3.923057	570.032257	66.980770	-25.917945	3.613898	44.427008	116.304525	0.000000	
0.089220	3.321613	567.620677	71.931599	-25.112661	3.199202	43.445759	125.583632	0.000000	
-12.309307	0.942648	552.797977	95.479232	-21.543668	1.262004	39.434031	171.811459	0.000000	
-6.777339	1.925414	559.865512	85.061705	-23.096238	2.078328	41.145000	150.926628	0.000000	
-8.411688	1.956033	557.280092	87.730579	-22.692881	1.895009	40.780295	156.416625	0.000000	
-4.867847	2.078943	561.413149	81.229099	-23.836612	2.419360	42.157337	143.666276	0.000000	
-4.079185	2.393996	562.446771	80.412506	-23.899382	2.421970	42.111342	141.917476	0.000000	
-4.777576	2.170121	561.240182	80.798062	-23.777808	2.454613	42.056772	142.933678	0.000000	
-8.725576	1.685709	557.799016	88.290648	-22.842362	1.770610	41.041182	157.301616	0.000000	
2.448095	3.303233	570.031994	67.021691	-25.706859	3.738551	44.068853	116.437375	0.000000	
2.788809	3.925796	570.202754	66.635965	-25.858280	3.560440	44.287451	115.664529	0.000000	
2.308378	3.475167	570.551940	67.669611	-25.976564	3.632812	44.514425	117.449220	0.000000	
-7.617225	1.871727	558.832420	86.741374	-23.089896	1.987299	41.295499	154.218209	0.000000	
-1.458707	3.129822	564.859710	74.945284	-25.070104	2.961406	43.740382	131.555774	0.000000	
-3.811745	2.661491	563.312958	79.595447	-24.145436	2.531029	42.455538	140.220907	0.000000	
-2.828550	2.542313	562.961228	77.483814	-24.546010	2.761069	43.096112	136.569962	0.000000	
0.401186	3.413245	567.100244	71.673307	-25.264070	3.269618	43.722473	125.235099	0.000000	
-5.401526	2.205455	560.378077	82.607570	-23.709695	2.310730	42.063612	146.380370	0.000000	
-7.481465	1.920389	557.446873	86.481979	-23.180382	2.001734	41.548754	154.133318	0.000000	
2.048841	3.563928	568.823951	68.013235	-26.035034	3.664760	44.780435	118.403818	0.000000	
2.931747	3.970652	569.512494	66.636100	-26.100231	3.773680	44.752838	115.801519	0.000000	
-1.808811	3.214265	564.690903	75.634400	-24.674975	3.033651	43.088755	132.807296	0.000000	
-8.236881	1.779851	557.104000	87.730685	-23.054973	1.840318	41.425782	156.484257	0.000000	
-9.880503	1.631363	553.995703	91.347070	-22.615884	1.459404	41.036507	163.909662	0.000000	
-8.852264	1.951958	555.032615	89.237241	-22.624870	1.837176	40.870617	159.768248	0.000000	
-5.263890	2.163418	559.339140	82.564032	-23.950953	2.379650	42.560724	146.580149	0.000000	
-4.473910	2.611939	560.546999	81.446159	-24.015369	2.418402	42.503160	144.223400	0.000000	
-9.254300	1.814990	554.860206	89.883220	-22.743349	1.693474	41.137745	160.996215	0.000000	
1.778922	3.517922	566.919457	69.261219	-25.786018	3.500251	44.520985	121.010208	0.000000	
2.800460	3.927590	568.301062	66.850475	-26.038019	3.735094	44.753407	116.431575	0.000000	
2.137712	3.570106	566.052125	68.140324	-25.971109	3.568866	44.881831	119.211501	0.000000	
3.554753	4.070138	567.950507	65.428946	-26.375073	3.822806	45.300455	113.986950	0.000000	
3.376752	3.670106	567.602761	66.073634	-26.099846	3.750534	44.861393	115.232636	0.000000	
-6.465034	2.155424	556.574450	84.758864	-23.517400	2.034487	42.118170	151.256570	0.000000	
-10.496259	1.359758	552.267919	93.025298	-22.306090	1.420626	40.668965	167.491389	0.000000	
-2.256361	2.419496	560.184488	77.395427	-24.481589	2.647187	43.141324	137.105464	0.000000	
-5.089488	2.124473	557.431677	82.648562	-23.827094	2.267912	42.469306	147.240071	0.000000	
-7.127855	1.574057	555.190467	86.393269	-23.177551	1.906446	41.679981	154.638267	0.000000	
-0.747811	2.478420	561.907127	74.553649	-25.037011	2.917735	43.844478	131.619384	0.000000	
-1.502833	2.513340	561.046318	76.362923	-24.818109	2.791838	43.598295	135.043903	0.000000	
-1.597177	2.291430	559.831731	77.180376	-24.812963	2.610226	43.694857	136.821069	0.000000	
2.832099	3.176809	564.482905	68.914646	-25.963319	3.315018	44.925966	120.955988	0.000000	
-2.614948	2.104385	558.452401	79.203588	-24.472344	2.465007	43.297047	140.802697	0.000000	
-6.474833	1.094555	553.621362	86.606812	-23.172450	1.669794	41.724947	155.513173	0.000000	
-6.481828	1.265448	554.487191	87.513595	-23.289894	1.619135	41.871079	156.887133	0.000000	
-0.002840	2.088111	561.031637	74.293799	-25.004542	2.789976	43.781746	131.401914	0.000000	
3.452033	2.786415	563.956479	68.094823	-26.146255	3.312611	45.231340	119.654796	0.000000	
3.804082	2.878119	564.473562	67.492333	-26.208945	3.331476	45.265250	118.467978	0.000000	
3.406365	2.476748	562.915431	68.653540	-26.142642	3.220572	45.314580	120.900995	0.000000	
1.726127	2.638197	561.369931	71.237160	-25.619728	3.057847	44.677945	125.822294	0.000000	
3.271156	2.652746	563.436198	68.524830	-26.053135	3.186117	45.126575	120.542534	0.000000	
3.938188	2.749332	563.259737	67.404784	-26.147398	3.310558	45.241865	118.582424	0.000000	
2.257651	2.420136	561.711727	70.892673	-25.771565	3.129863	44.867498	125.153739	0.000000	
0.835613	2.235419	557.908086	73.301569	-25.457438	2.692321	44.758727	130.348845	0.000000	
-1.114204	1.901108	556.707703	77.780407	-24.563778	2.460110	43.448192	138.710576	0.000000	
-6.518001	0.655591	549.809140	87.723505	-23.224367	1.517783	42.118549	158.672946	0.000000	
-6.303913	0.922702	549.633524	87.638420	-23.435298	1.410119	42.494170	158.541834	0.000000	
-5.507771	1.061605	552.226981	85.830881	-23.443903	1.576482	42.225594	154.506153	0.000000	
-0.404051	1.647545	556.008293	76.141978	-24.901302	2.474494	44.039221	135.964901	0.000000	
-2.619062	1.359369	553.597051	80.361399	-24.340847	2.131181	43.446576	144.211684	0.000000	
4.030855	2.580460	560.314224	66.971431	-26.509356	3.230890	46.120547	118.453572	0.000000	
4.331667	2.536206	560.829313	67.273608	-26.386114	3.125154	45.827620	118.887265	0.000000	
6.068862	2.466089	561.685847	64.258257	-26.760086	3.537007	46.248805	113.343340	0.000000	
3.494387	2.439148	559.450260	68.909719	-26.349583	3.069058	45.961203	122.116559	0.000000	
-2.050325	1.361266	553.938134	80.362620	-24.581337	2.096312	43.795878	144.124398	0.000000	
-1.601982	1.150351	553.241810	78.852974	-24.647033	2.164746	43.925268	141.599483	0.000000	
-1.074740	1.377087	553.238306	78.035521	-25.012105	2.146331	44.531963	140.099812	0.000000	
0.962433	1.791434	555.132710	75.281600	-25.535948	2.507890	45.115043	134.616232	0.000000	
2.465970	1.942621	558.065920	71.190640	-25.976488	2.672845	45.512016	126.558608	0.000000	
1.753171	1.801186	556.337338	73.429708	-25.724280	2.473457	45.274424	130.993285	0.000000	
2.906866	1.813414	556.849652	71.448650	-26.124265	2.652257	45.834097	127.313170	0.000000	
-2.408435	0.745677	549.604892	81.607053	-24.420560	1.745872	43.891412	147.594202	0.000000	
-0.411436	0.761019	553.576595	77.862635	-25.253356	2.182082	44.872841	139.763835	0.000000	
7.293809	2.212001	560.113399	63.999217	-27.058050	3.318209	46.790117	113.226794	0.000000	
1.796293	1.358155	553.910058	74.978416	-25.563634	2.379196	45.181879	134.411703	0.000000	
-3.122532	0.028530	547.352950	84.361532	-24.225695	1.455256	43.792419	153.310661	0.000000	
-8.268595	-0.247093	541.669583	94.653530	-22.794548	0.571643	42.151114	173.956833	0.000000	
-4.768634	-0.037123	545.457663	88.754910	-23.512127	1.132160	42.808446	161.907424	0.000000	
2.097604	1.316349	552.693295	75.538026	-25.528364	2.215820	45.188678	135.726159	0.000000	
-1.006906	0.798218	548.726525	81.780737	-24.686892	1.637260	44.304986	148.142913	0.000000	
0.109395	0.766916	550.107006	79.110259	-25.000624	1.960754	44.648280	142.917833	0.000000	
7.809520	1.950470	558.545545	64.773826	-27.111041	3.010570	46.966736	114.960012	0.000000	
5.417155	1.877576	557.003246	69.598194	-26.579583	2.723832	46.385815	123.949213	0.000000	
7.232066	1.942179	557.164028	66.712188	-27.041955	2.901378	47.019301	118.726889	0.000000	
6.256197	1.489464	556.474744	68.563060	-26.793030	2.703418	46.729588	122.246671	0.000000	
-2.198351	0.212439	547.346676	83.802603	-24.316486	1.491349	43.864067	152.272415	0.000000	
2.752103	1.146928	551.818940	75.063715	-25.859871	2.033981	45.795731	135.100190	0.000000	
0.675782	0.549807	549.059834	79.368548	-25.329044	1.797016	45.275207	143.684564	0.000000	
5.504595	1.218540	553.880770	70.370024	-26.633051	2.537051	46.739428	126.112807	0.000000	
-1.496372	0.214709	547.167639	84.019356	-24.706536	1.473308	44.519547	152.718409	0.000000	
5.110095	1.347590	553.885424	70.757712	-26.420947	2.591332	46.396052	126.798612	0.000000	
5.058858	0.944591	553.708836	72.092827	-26.353844	2.448357	46.295105	129.291368	0.000000	
4.170908	1.200659	553.715743	73.256634	-26.259906	2.323982	46.214844	131.365610	0.000000	
0.180901	0.365425	547.675122	81.607494	-24.773938	1.580949	44.428800	148.156886	0.000000	
5.768082	1.305341	554.918529	70.414785	-26.814666	2.593427	46.951187	125.947328	0.000000	
-1.369768	0.085080	546.124946	84.190554	-24.613130	1.309766	44.422008	153.338335	0.000000	
1.379016	0.381419	547.493871	79.065861	-25.447742	1.703541	45.551689	143.562259	0.000000	
1.470345	0.554485	549.573881	78.895647	-25.420450	1.887814	45.317323	142.688444	0.000000	
8.914017	1.650400	556.457905	64.772853	-27.408776	3.023537	47.569578	115.422859	0.000000	
7.666825	1.634491	555.772051	67.616141	-27.034931	2.755509	47.082507	120.683831	0.000000	
4.526508	0.983103	553.019792	73.169625	-26.289113	2.357966	46.290729	131.396690	0.000000	
5.897494	1.350099	553.705122	71.189727	-26.567657	2.537996	46.596588	127.620137	0.000000	
3.905537	1.064513	551.119678	75.107484	-26.038256	2.247841	46.061085	135.360447	0.000000	
5.411094	1.081972	551.974982	72.221688	-26.471731	2.408864	46.620767	129.919539	0.000000	
3.275962	1.058550	550.255264	76.485582	-25.820225	1.960304	45.802641	138.079444	0.000000	
0.754775	0.460190	546.978445	80.918745	-25.289052	1.578603	45.369269	147.077715	0.000000	
8.197786	1.773054	554.903300	67.142525	-27.307243	2.789094	47.594502	120.006524	0.000000	
8.419617	1.863368	555.421997	66.626105	-27.430568	2.843717	47.748948	118.954790	0.000000	
-4.078374	-0.251998	540.944307	90.476487	-23.890302	0.710874	43.799692	166.469904	0.000000	
4.337249	1.378029	550.942269	74.764285	-26.400736	2.086234	46.690131	134.749436	0.000000	
0.484568	0.497871	547.153044	82.125698	-25.133026	1.508593	45.097089	149.232537	0.000000	
4.915558	1.295367	551.631253	73.644444	-26.556422	2.212279	46.854240	132.558474	0.000000	
3.141235	0.969067	549.388626	77.002008	-25.907956	1.868861	46.049583	139.247681	0.000000	
6.199373	1.530840	553.355268	70.802725	-26.900378	2.393590	47.197215	126.983637	0.000000	
3.401063	1.278017	550.946542	76.659624	-26.000772	1.872771	46.059148	138.198719	0.000000	
9.474543	2.091514	557.319334	65.207013	-27.738173	2.901320	48.029442	115.977804	0.000000	
7.660003	1.807266	555.944936	68.393212	-27.273235	2.667118	47.496956	122.026360	0.000000	
5.000401	1.336748	553.015699	73.689028	-26.647843	2.215638	46.891676	132.301007	0.000000	
10.008831	1.919883	557.661803	64.302268	-27.953157	3.008612	48.331216	114.300958	0.000000	
9.645691	1.957961	557.835402	65.336941	-27.979111	2.812765	48.398981	116.116105	0.000000	
3.799333	0.926272	552.846516	75.626241	-26.278215	1.929461	46.359573	135.887472	0.000000	
2.202684	0.333741	550.602042	79.199254	-25.991311	1.603505	46.193395	142.994382	0.000000	
5.131343	1.072382	552.839465	73.731517	-26.737631	2.161118	47.055998	132.447128	0.000000	
7.742531	1.541234	556.460556	68.436393	-27.484397	2.542418	47.823366	122.016960	0.000000	
-0.811794	-0.136717	546.115584	85.096555	-24.969303	1.041610	45.017650	155.022758	0.000000	
2.644971	0.558334	551.293154	78.511102	-26.024340	1.694651	46.149395	141.542994	0.000000	
-1.702864	-0.367585	544.906591	87.163148	-24.718547	0.789280	44.750850	159.184848	0.000000	
-6.969286	-1.085089	539.917264	96.764349	-23.261939	0.102968	43.021120	178.520662	0.000000	
-1.253139	0.035009	546.639511	85.356069	-25.181563	1.042827	45.407349	155.330514	0.000000	
-0.553995	0.438638	547.154429	84.754544	-25.091824	1.008823	45.128171	154.042810	0.000000	
-7.141787	-0.862555	539.920527	96.075273	-23.447242	0.156044	43.381986	177.220198	0.000000	
5.126212	0.809284	553.528536	73.084524	-26.710200	2.018430	46.947403	131.139054	0.000000	
9.915259	1.964645	558.353456	63.742735	-28.198018	2.884035	48.718314	113.151753	0.000000	
7.966625	1.460744	556.111961	67.013544	-27.641065	2.540045	48.112950	119.543510	0.000000	
9.557749	1.916137	558.700937	64.173811	-28.287661	2.777379	48.883878	113.857313	0.000000	
10.132386	1.967527	558.350620	63.398116	-28.259128	2.812121	48.806194	112.534833	0.000000	
9.689509	1.742821	558.005705	64.000171	-28.136020	2.721809	48.660760	113.706430	0.000000	
8.363126	1.859953	557.323719	66.412701	-27.886003	2.632515	48.406198	118.163550	0.000000	
9.022656	1.689767	558.528869	65.077559	-28.072555	2.616151	48.567804	115.533465	0.000000	
6.714854	1.578166	554.732843	70.072212	-27.356010	2.163198	47.847270	125.344618	0.000000	
5.434489	0.948072	552.833649	72.351934	-26.863138	1.980483	47.252759	129.965670	0.000000	
1.005388	0.065470	547.835193	80.143362	-25.865706	1.238460	46.324022	145.471501	0.000000	
-3.292448	-0.202662	543.706808	88.755940	-24.472384	0.644077	44.562628	162.450396	0.000000	
-0.900162	0.000587	544.903903	84.449572	-25.243325	0.948361	45.631486	154.167810	0.000000	
2.996752	0.616032	548.863768	76.958243	-26.511526	1.507999	47.208814	139.337967	0.000000	
-0.638785	0.357413	545.422513	83.804489	-25.306333	0.931690	45.675981	152.801019	0.000000	
-0.365795	-0.125338	544.900098	83.372125	-25.488977	1.036780	46.027605	152.204530	0.000000	
1.668743	0.427934	547.312866	78.981047	-26.201588	1.290458	46.914671	143.450274	0.000000	
9.066026	1.606911	555.583177	65.290823	-28.249979	2.465761	49.144452	116.542556	0.000000	
3.701419	0.666784	549.204605	76.097244	-26.634724	1.526312	47.331356	137.678085	0.000000	
3.881974	0.670358	549.724176	75.235282	-26.548119	1.616489	47.109906	135.978835	0.000000	
9.994217	1.837594	556.270490	63.741053	-28.406546	2.574178	49.270592	113.588287	0.000000	
4.235227	0.493473	550.759881	75.020740	-26.760860	1.672238	47.370115	135.350081	0.000000	
8.844640	1.514532	555.065009	66.281230	-28.033948	2.447537	48.824244	118.445756	0.000000	
6.841813	1.096689	552.821859	70.241893	-27.382564	1.925277	48.050538	126.136521	0.000000	
-6.002212	-1.246246	538.348064	95.039710	-23.748902	-0.063785	43.952573	175.856610	0.000000	
4.634852	0.502980	549.543940	73.856351	-26.945362	1.650375	47.771604	133.531561	0.000000	
9.280634	1.341615	554.885895	66.065572	-28.123802	2.339365	48.958103	118.113085	0.000000	
6.448901	0.693280	552.650645	71.016407	-27.440694	1.960523	48.210743	127.618260	0.000000	
9.985154	1.480789	555.919863	64.817498	-28.340112	2.376887	49.183578	115.632784	0.000000	
9.720378	1.301168	555.401357	65.462838	-28.216403	2.340144	49.034239	116.921574	0.000000	
8.128342	0.887979	553.678280	68.088597	-28.055524	2.104193	49.060057	122.072233	0.000000	
5.242769	0.680754	548.845859	74.848364	-26.847466	1.543020	47.592854	135.491714	0.000000	
-2.108369	-0.895336	541.439528	88.020782	-24.771838	0.386638	45.182897	161.848059	0.000000	
2.105044	-0.143842	545.399984	79.883695	-26.194047	1.125042	47.023265	145.670089	0.000000	
9.329498	0.945120	553.845376	66.322156	-28.000809	2.372550	48.824542	118.839958	0.000000	
10.346538	1.313141	554.878541	63.523287	-28.465391	2.462568	49.466592	113.535844	0.000000	
10.299061	1.531065	554.879803	64.213601	-28.401892	2.445704	49.356841	114.757626	0.000000	
7.823823	0.756806	551.429397	68.603046	-27.779868	2.081329	48.794441	123.519676	0.000000	
7.377932	0.574250	550.738009	69.937644	-27.501832	1.955321	48.397268	126.117650	0.000000	
2.946268	-0.043690	545.221256	78.246386	-26.259646	1.195324	47.072683	142.704784	0.000000	
-4.935732	-1.623919	535.913634	92.709987	-24.147518	-0.072125	44.787957	172.351488	0.000000	
-1.841299	-1.066174	540.224386	87.545402	-24.832632	0.365231	45.371096	161.351711	0.000000	
10.618445	0.878665	553.143447	62.960279	-28.375113	2.493353	49.433437	112.920768	0.000000	
8.888394	0.769830	551.595645	66.664206	-27.937502	2.223718	48.956985	119.965912	0.000000	
4.851839	0.329885	547.808355	74.285551	-26.789646	1.521339	47.618973	134.758411	0.000000	
9.381588	0.865625	552.113795	65.156475	-28.004620	2.403017	48.981747	117.111994	0.000000	
6.452568	0.615592	548.146856	70.925995	-27.255437	1.824412	48.274986	128.516511	0.000000	
9.686014	0.959801	550.898132	64.854420	-28.124593	2.274654	49.278344	116.814331	0.000000	
6.452398	0.398867	547.278884	70.450396	-27.256460	1.731978	48.354683	127.874818	0.000000	
-6.970349	-1.950457	533.155076	96.109661	-23.287681	-0.362942	43.625152	179.658330	0.000000	
7.297789	0.586207	547.448365	68.727701	-27.504663	1.910426	48.706207	124.669007	0.000000	
8.003385	0.857808	548.656794	67.522878	-27.479177	2.002609	48.478587	122.168905	0.000000	
4.155230	0.113283	543.137965	74.754533	-26.664452	1.438360	47.876677	136.810018	0.000000	
6.278654	0.620181	546.416346	70.579408	-27.195360	1.766158	48.338278	128.291336	0.000000	
9.292788	1.313270	548.652394	65.499801	-28.030385	2.288223	49.351778	118.435956	0.000000	
10.491261	1.193943	549.856676	62.915655	-28.614966	2.467704	50.182820	113.487285	0.000000	
7.117376	0.895009	546.411444	69.244877	-27.471427	1.819273	48.757831	125.821918	0.000000	
1.140028	-0.091077	539.172898	80.221812	-25.614637	0.895619	46.601241	147.983482	0.000000	
0.876696	-0.400838	537.787685	80.650793	-25.672514	0.820382	46.858399	149.196741	0.000000	
6.237347	0.890368	544.340554	70.534894	-26.921801	1.761850	48.027321	128.674038	0.000000	
8.722959	1.005205	546.576904	65.668795	-27.817333	2.193248	49.210871	119.229583	0.000000	
9.743673	1.324013	548.131252	63.689182	-28.128133	2.428730	49.531623	115.244975	0.000000	
8.099753	0.911705	545.713541	66.701761	-27.692022	2.012630	49.124421	121.321986	0.000000	
6.595746	0.986356	542.434556	70.016842	-27.073048	1.810783	48.440603	128.164047	0.000000	
8.273156	1.131209	545.713255	67.220166	-27.749734	2.013535	49.212372	122.249439	0.000000	
-3.730752	-1.062944	531.060399	89.432226	-24.246098	0.022156	45.262777	167.702620	0.000000	
-3.428900	-0.975287	531.576689	89.778145	-24.274064	-0.047614	45.238799	168.180439	0.000000	
10.582440	1.423120	547.259377	62.654909	-28.190259	2.444222	49.639316	113.529800	0.000000	
8.323628	0.960409	543.461722	67.002187	-27.658073	2.025760	49.245648	122.375821	0.000000	
6.450985	0.849634	542.431591	71.007917	-27.067943	1.560657	48.446434	130.005992	0.000000	
8.984262	1.321159	544.324240	65.711116	-27.753667	2.081176	49.273889	119.771556	0.000000	
5.162326	0.792557	540.533831	73.634547	-26.815120	1.271397	48.285327	135.330535	0.000000	
7.117653	0.989510	542.601826	69.931343	-27.132123	1.703921	48.480333	127.966390	0.000000	
4.283722	0.431043	539.673581	74.881918	-26.569253	1.251777	47.999312	137.896477	0.000000	
-6.535993	-1.449206	525.705462	97.096912	-23.183981	-0.701013	44.010891	184.040186	0.000000	
6.846381	1.075587	541.909807	70.577559	-27.189262	1.541563	48.676774	129.314407	0.000000	
10.039787	1.548914	544.663398	65.066978	-28.147322	2.117839	49.856729	118.490371	0.000000	
9.856418	1.504040	544.489229	65.367918	-27.903584	1.956559	49.444180	119.085860	0.000000	
10.920194	1.912985	544.831147	63.603382	-28.333097	2.135668	50.091446	115.729816	0.000000	
11.096569	1.692674	545.174832	63.473912	-28.363681	2.136119	50.097318	115.441537	0.000000	
12.165507	2.190920	546.038193	61.235566	-28.644925	2.441694	50.422086	111.107278	0.000000	
11.185877	1.914843	544.656364	63.517378	-28.393239	2.171123	50.190826	115.609118	0.000000	
5.286328	0.879695	539.146324	75.012963	-26.504417	1.126709	47.822426	138.228497	0.000000	
1.118881	0.356449	533.454676	82.287513	-25.386806	0.329634	46.684349	153.403701	0.000000	
3.691270	0.866426	536.212611	77.940227	-26.068803	0.835330	47.442893	144.449753	0.000000	
4.269967	0.697553	536.554414	76.475080	-26.316333	0.924149	47.812986	141.644217	0.000000	
3.778796	0.782302	535.171530	77.508502	-26.341485	0.742496	48.037063	143.934452	0.000000	
3.786241	0.826021	535.174190	77.594457	-26.069625	0.922096	47.528054	144.089760	0.000000	
10.158434	1.642256	542.926841	65.281369	-28.082687	1.773844	49.887404	119.257197	0.000000	
10.470693	1.866037	543.273302	64.808196	-27.994009	1.900251	49.659609	118.286546	0.000000	
0.061319	-0.005720	529.651297	84.998205	-25.041268	0.179051	46.484886	159.667361	0.000000	
-3.971741	-0.798177	525.170568	92.746964	-23.741083	-0.507297	44.843359	175.875983	0.000000	
11.053030	1.830886	541.885374	63.945357	-28.056207	2.039704	49.843302	117.002945	0.000000	
9.283257	1.414638	540.509950	67.044995	-27.591421	1.805248	49.295953	123.080611	0.000000	
8.793025	1.851360	540.515171	67.778557	-27.498525	1.734737	49.174492	124.391233	0.000000	
12.474043	2.065831	543.783190	61.147146	-28.460753	2.346904	50.263925	111.421701	0.000000	
9.997637	2.176325	540.857457	65.065227	-27.902140	2.056220	49.764157	119.261566	0.000000	
11.103224	2.228308	543.967278	62.870572	-28.184483	2.259049	49.880164	114.535212	0.000000	
7.558445	1.399634	538.963228	69.412876	-27.311331	1.588004	49.099561	127.831125	0.000000	
-4.982298	-0.452815	524.662101	93.694881	-23.527826	-0.453792	44.589188	177.817002	0.000000	
5.437010	1.287635	537.766374	73.202605	-26.663545	1.426719	48.227346	135.176285	0.000000	
8.849287	1.896816	541.730509	66.658887	-27.656736	2.005166	49.348626	122.038798	0.000000	
6.056066	1.469300	538.802291	72.213127	-26.788513	1.536262	48.300578	133.059471	0.000000	
4.470648	1.281811	535.696562	74.406993	-26.538093	1.386607	48.283759	137.950592	0.000000	
3.847091	1.364187	536.046549	75.139350	-26.233859	1.262773	47.749437	139.217589	0.000000	
9.753373	2.173607	542.596952	64.117984	-27.940625	2.507054	49.698281	117.131147	0.000000	
6.956682	2.321329	539.844425	69.458510	-27.133976	2.021233	48.752144	127.609871	0.000000	
2.041229	1.078642	534.674925	78.411869	-25.799606	1.225694	47.251277	145.727358	0.000000	
-1.762721	0.512856	530.888321	84.567302	-24.718966	0.718821	45.960417	158.426955	0.000000	
6.343984	2.051460	539.848690	69.801836	-26.983070	2.056736	48.535898	128.272873	0.000000	
9.187100	2.480060	542.778053	63.859924	-28.034926	2.632583	49.913711	116.584672	0.000000	
8.297913	2.691749	542.264917	65.368000	-27.878289	2.471486	49.764838	119.454928	0.000000	
8.611994	2.693942	543.303219	64.679143	-27.761011	2.634852	49.419930	117.956954	0.000000	
8.572082	2.782829	543.131931	64.420880	-27.974189	2.705721	49.832385	117.509721	0.000000	
10.033073	3.016722	545.721104	61.623305	-28.409287	2.960816	50.239297	111.797910	0.000000	
2.241977	1.790907	537.108619	75.700339	-26.087927	1.820856	47.549438	139.940580	0.000000	
-7.507805	0.188609	526.599681	94.083710	-23.386371	0.195435	44.422698	177.829784	0.000000	
3.748124	2.289507	540.565301	72.559362	-26.616107	2.149658	48.061101	133.178230	0.000000	
2.157260	2.143897	537.978173	75.098671	-26.364273	1.929982	47.993822	138.557873	0.000000	
-0.503266	1.669635	535.915239	80.955282	-25.404581	1.535216	46.669392	150.072256	0.000000	
4.689054	2.613401	540.736422	69.802846	-27.141436	2.452457	48.919516	128.004511	0.000000	
1.318509	1.958747	538.156580	76.088761	-26.059643	1.877101	47.499036	140.370753	0.000000	
7.835711	3.217726	546.088102	63.561255	-27.802571	3.070493	49.319753	115.250364	0.000000	
5.356834	2.973806	543.159413	67.651055	-27.333617	2.689772	48.982616	123.431017	0.000000	
-7.856438	0.717220	529.377151	92.621192	-23.457349	0.362279	44.356526	174.073762	0.000000	
2.034361	2.363606	540.926920	73.592676	-26.435379	2.204374	47.872101	134.991233	0.000000	
7.130194	3.521227	546.614812	63.777527	-27.864545	3.071845	49.457269	115.503031	0.000000	
6.513266	3.119562	545.577823	64.421804	-27.952827	2.961399	49.778029	116.946331	0.000000	
7.443999	3.610451	549.558335	62.271914	-28.145921	3.274513	49.668115	112.131236	0.000000	
6.206449	3.115635	547.139345	64.207001	-27.835223	3.036457	49.450237	116.218058	0.000000	
6.694491	3.208422	548.175919	63.131012	-28.021529	3.145623	49.645153	114.024407	0.000000	
5.265030	3.014977	547.661514	65.930578	-27.708226	2.716269	49.266899	119.263945	0.000000	
-4.391198	1.234101	537.845430	84.400340	-24.916433	1.235792	45.997076	155.981498	0.000000	
-7.440498	0.455570	533.187007	89.736475	-24.199879	0.797516	45.382807	167.441326	0.000000	
-0.935795	1.710060	542.673909	77.512503	-26.183873	1.797572	47.559091	141.844793	0.000000	
-1.018290	1.753871	542.503254	77.426343	-26.275563	1.904475	47.751844	141.726319	0.000000	
1.416965	1.781414	545.776340	72.042944	-26.901602	2.212547	48.357453	131.004917	0.000000	
2.259477	2.450210	547.853535	70.366527	-27.302729	2.467788	48.817013	127.376661	0.000000	
4.480186	2.428419	550.957703	65.887842	-27.774572	2.919612	49.167787	118.527735	0.000000	
6.862604	3.423531	553.542928	61.886628	-28.545229	3.174935	50.085217	110.641136	0.000000	
-4.160956	1.015118	540.961738	82.333483	-25.321712	1.473431	46.452867	151.280260	0.000000	
-4.076624	1.235186	541.654130	82.205886	-25.624943	1.439183	46.943570	150.827475	0.000000	
4.786839	2.607965	553.033602	64.511137	-28.084183	2.941245	49.509002	115.572186	0.000000	
1.816154	1.959686	549.411524	70.150379	-27.305770	2.380651	48.727157	126.669825	0.000000	
1.501472	2.128749	550.626829	71.099721	-27.091525	2.348915	48.260844	128.095340	0.000000	
6.072913	2.618278	555.623211	61.971743	-28.699996	3.195944	50.253040	110.458353	0.000000	
4.519387	2.383073	553.899316	64.640519	-28.235969	2.871083	49.731515	115.646648	0.000000	
4.963991	2.387047	555.282245	63.521112	-28.241357	2.998975	49.570477	113.340279	0.000000	
1.508101	1.866475	551.145837	69.935895	-27.460376	2.419863	48.883225	125.889000	0.000000	
-9.089680	-0.100729	538.906796	91.074744	-24.383369	0.523608	45.404963	168.196752	0.000000	
0.088754	1.543637	550.286714	72.088028	-27.089936	2.150151	48.432316	130.030659	0.000000	
-3.499137	0.667659	545.629278	79.104568	-26.124645	1.534143	47.452270	144.097142	0.000000	
-1.105868	0.997390	548.906433	75.101844	-26.836029	1.987243	48.215629	135.906097	0.000000	
5.315713	2.213349	556.490022	62.487809	-28.639075	2.982465	50.140409	111.253219	0.000000	
4.607582	1.586940	556.837289	63.390683	-28.424997	2.857577	49.795548	112.867881	0.000000	
0.665280	1.237808	552.532415	70.624234	-27.460051	2.261073	48.843577	126.880671	0.000000	
-1.194414	0.646461	549.596760	74.152729	-26.810483	1.915721	48.116637	134.043266	0.000000	
-6.736565	-0.342321	545.297825	84.744955	-25.198600	1.016628	46.116472	154.632827	0.000000	
-7.569191	-0.612660	543.572091	85.733529	-25.134559	0.994666	46.233512	156.972903	0.000000	
-1.464578	0.684646	551.157008	74.541768	-26.750041	1.866004	47.896035	134.363479	0.000000	
2.657012	1.168343	555.808345	66.662925	-28.080931	2.534281	49.467064	119.007947	0.000000	
5.845876	1.596307	559.599396	60.980762	-29.070446	3.041090	50.575132	107.999318	0.000000	
5.403148	1.457924	559.082340	62.143279	-28.854115	2.986984	50.280126	110.193168	0.000000	
3.853939	0.915942	556.837789	64.422784	-28.421692	2.677923	49.865508	114.788894	0.000000	
1.588472	0.491645	555.117476	69.245721	-27.647015	2.247271	48.855944	123.878168	0.000000	
-4.084474	-0.449725	549.260514	79.707299	-26.095102	1.290515	47.139359	144.350616	0.000000	
-7.015507	-1.009742	544.772271	85.949626	-25.252412	0.639119	46.289229	157.062859	0.000000	
1.229443	0.310388	554.597995	70.235961	-27.581989	2.085335	48.821518	125.798810	0.000000	
4.207779	0.520288	556.832957	64.249838	-28.602912	2.677203	50.155740	114.519176	0.000000	
3.046993	0.375241	555.971531	66.618141	-28.139739	2.336593	49.518732	118.972267	0.000000	
3.981665	0.294212	557.698007	64.939066	-28.328535	2.590170	49.607489	115.598874	0.000000	
-7.414381	-1.764613	543.384729	87.109766	-25.065000	0.474532	46.105731	159.678968	0.000000	
-2.500286	-0.788176	548.898649	78.285172	-26.338403	1.234856	47.452272	141.890039	0.000000	
-0.275924	-0.765251	551.484512	73.720464	-27.112917	1.738849	48.404187	132.941458	0.000000	
-3.159883	-1.145696	548.382066	78.585137	-26.489413	1.161101	47.840576	142.608047	0.000000	
3.664355	-0.109306	556.310589	66.704124	-28.289156	2.354952	49.694390	119.102690	0.000000	
5.748261	0.224265	557.164646	62.785339	-28.907736	2.658946	50.517379	111.851842	0.000000	
6.588463	0.054668	558.889391	61.235045	-28.974607	2.769262	50.394352	108.747300	0.000000	
6.502897	-0.032900	558.197264	61.148265	-29.186408	2.767110	50.845851	108.736484	0.000000	
1.839982	-0.656548	553.372897	70.362568	-27.849782	1.830445	49.353371	126.405945	0.000000	
1.088790	-1.149188	552.163132	71.824574	-27.359861	1.702878	48.652283	129.382516	0.000000	
6.898458	-0.338054	558.018583	60.759693	-29.247118	2.712315	50.931407	108.105904	0.000000	
-0.998605	-1.968146	549.572786	76.559675	-26.614527	1.233747	47.742217	138.695754	0.000000	
-3.028385	-1.986238	546.124929	80.175812	-26.177115	1.049003	47.456201	146.199820	0.000000	
0.908785	-1.505322	550.256689	73.244426	-27.230863	1.555921	48.607497	132.450256	0.000000	
-2.454487	-2.111080	546.465692	78.883083	-26.332764	1.048581	47.652021	143.755346	0.000000	
6.441997	-0.831365	556.456662	63.084106	-28.841899	2.334085	50.394390	112.638538	0.000000	
-1.790674	-2.107681	547.846903	78.022967	-26.578357	1.176622	47.910201	141.820527	0.000000	
-7.283905	-3.531089	539.562528	88.998472	-24.840010	0.178385	46.007361	164.500008	0.000000	
4.675226	-1.287903	553.003371	66.354076	-28.253699	2.077019	49.829612	119.306429	0.000000	
5.915210	-1.323124	554.900159	64.589476	-28.532743	2.295275	50.034083	115.719361	0.000000	
0.644839	-2.035896	548.696210	73.801784	-27.166864	1.444366	48.658327	133.899294	0.000000	
7.247766	-1.175497	555.758829	62.005558	-28.875015	2.546349	50.436892	110.875059	0.000000	
5.474720	-1.675990	552.995999	65.017244	-28.287997	2.165196	49.811191	116.929972	0.000000	
7.418355	-1.260797	555.408681	61.832665	-28.844153	2.402057	50.396386	110.642797	0.000000	
-6.452041	-3.657584	539.900154	88.567936	-24.779037	0.107570	45.778713	163.612340	0.000000	
-5.428250	-3.731304	538.508159	86.714594	-25.358537	0.227813	46.868533	160.603422	0.000000	
1.519042	-2.426753	547.819154	73.886874	-27.071839	1.281276	48.474491	134.310325	0.000000	
8.034711	-1.654095	555.228060	61.530584	-29.085408	2.365088	50.785266	110.174734	0.000000	
6.484657	-1.802776	553.159702	64.630692	-28.740552	2.129413	50.511903	116.209180	0.000000	
6.218233	-1.848638	551.948856	65.491075	-28.403455	2.055838	50.040785	118.029370	0.000000	
4.223652	-2.533940	549.706721	69.709954	-27.902803	1.694509	49.540928	126.258832	0.000000	
8.342143	-1.651416	554.705924	61.573531	-29.053603	2.346232	50.745378	110.356357	0.000000	
8.567962	-1.914388	554.877151	61.099090	-29.176572	2.435374	50.928256	109.493605	0.000000	
1.740792	-2.823903	546.776534	74.402745	-27.219199	1.260800	48.815178	135.552215	0.000000	
-2.292996	-3.616950	541.603126	82.668308	-25.825333	0.555505	47.133279	152.198226	0.000000	
10.248549	-1.808274	555.904771	58.385977	-29.397270	2.615380	51.060038	104.398452	0.000000	
4.127155	-2.580223	548.665556	70.829507	-27.684735	1.514101	49.248849	128.545201	0.000000	
-1.407051	-3.785985	542.981579	81.075010	-26.103801	0.682675	47.432925	148.892897	0.000000	
9.797867	-1.947122	554.865951	59.979427	-29.329090	2.381153	51.079804	107.481243	0.000000	
6.520069	-2.467754	550.902180	66.566569	-28.365889	1.874603	50.038424	120.270458	0.000000	
5.900929	-2.691398	549.345614	67.383027	-28.150375	1.727857	49.853365	122.122627	0.000000	
2.881806	-3.078549	546.591338	73.583733	-27.188826	1.170437	48.659289	134.126159	0.000000	
-7.570940	-4.861194	533.662982	93.342978	-23.996960	-0.513408	44.975105	174.608272	0.000000	
2.038836	-3.128544	544.691074	75.089788	-26.909880	0.969985	48.406509	137.367040	0.000000	
8.554794	-2.001485	551.755959	62.777099	-28.771923	2.089546	50.488757	113.167662	0.000000	
4.791159	-2.966589	547.445713	69.663907	-27.656645	1.474137	49.240975	126.743880	0.000000	
4.788594	-2.747467	547.273514	70.138795	-27.745080	1.456517	49.418573	127.629286	0.000000	
9.755290	-1.900006	552.615534	60.451662	-29.143658	2.340684	50.959793	108.772011	0.000000	
9.485389	-1.769196	551.577943	61.269704	-28.897427	2.213899	50.638180	110.447942	0.000000	
5.849694	-2.204513	547.095930	68.503111	-27.901065	1.581269	49.611159	124.625535	0.000000	
-0.218599	-3.768346	539.680764	80.168199	-26.161797	0.549336	47.711757	148.126427	0.000000	
3.188131	-3.115337	542.950978	74.098429	-27.242539	1.001171	49.058091	135.982655	0.000000	
5.940689	-2.291914	546.749251	68.588617	-27.718883	1.634404	49.300569	124.870433	0.000000	
3.061539	-2.804371	541.743220	74.227082	-26.939363	1.106617	48.622696	136.492899	0.000000	
5.758473	-2.251246	546.576378	69.364421	-27.685091	1.527245	49.273292	126.325396	0.000000	
8.157040	-1.827360	548.815698	64.498927	-28.460230	2.012925	50.236195	116.897860	0.000000	
9.568376	-1.636098	549.152061	62.604451	-28.707274	2.084523	50.510606	113.356398	0.000000	
10.277813	-1.229984	549.843108	61.055023	-28.894877	2.228851	50.714934	110.353522	0.000000	
0.663063	-3.360771	538.637238	79.436609	-26.282913	0.583064	47.938733	147.014293	0.000000	
-5.008567	-4.128548	532.782975	90.631363	-24.546640	-0.282925	45.812556	169.731332	0.000000	
10.547241	-1.405532	550.880458	60.452137	-28.958658	2.355978	50.706289	109.067662	0.000000	
8.103027	-1.828661	546.216181	66.350090	-28.086059	1.776063	49.799548	120.847261	0.000000	
8.061000	-1.962620	547.601558	65.790647	-28.301741	1.832079	50.069741	119.531574	0.000000	
11.961496	-1.303623	550.870947	58.858995	-29.234541	2.480634	51.063943	106.167137	0.000000	
11.120454	-1.225704	549.665589	61.055597	-28.802376	2.408280	50.477267	110.390031	0.000000	
8.023692	-2.005427	546.391346	66.047730	-27.997706	1.937182	49.629775	120.273033	0.000000	
6.732530	-2.020508	545.359360	68.847529	-27.593483	1.650377	49.116814	125.637578	0.000000	
-3.945819	-4.161305	532.602520	89.381597	-24.398365	-0.158329	45.437990	167.446039	0.000000	
5.856017	-2.201756	542.941745	69.922125	-27.619300	1.608947	49.477159	128.198578	0.000000	
10.062209	-1.453133	547.593555	62.560471	-28.312463	2.278884	49.885012	113.582272	0.000000	
3.858842	-2.442788	540.874725	73.882646	-26.545375	1.249059	47.890897	136.039052	0.000000	
5.369852	-2.296188	542.598800	71.170515	-27.040033	1.591596	48.491621	130.590644	0.000000	
9.315428	-1.503412	546.387572	63.550416	-28.399849	2.258386	50.233477	115.651728	0.000000	
11.132176	-0.953212	548.803131	59.676026	-28.808601	2.584411	50.567973	108.023148	0.000000	
-2.294883	-3.168389	533.293358	85.722656	-24.896867	0.361317	46.139173	160.262579	0.000000	
1.743421	-2.638117	537.080949	77.756311	-25.834685	1.099546	47.132497	144.238578	0.000000	
-1.582106	-2.936671	533.290730	83.999388	-24.963750	0.521609	46.189827	157.007607	0.000000	
8.965929	-0.750868	546.049261	63.292281	-27.797193	2.366340	49.197335	115.173826	0.000000	
5.381358	-1.627975	541.566550	70.266300	-27.104761	1.822069	48.703878	129.102246	0.000000	
7.460085	-0.896484	543.287541	66.133133	-27.422412	2.092998	48.917102	121.007467	0.000000	
7.330226	-1.253630	542.421656	67.166099	-27.357023	2.109325	48.889329	123.143236	0.000000	
8.566270	-0.753584	545.185524	63.894876	-27.854974	2.257048	49.423641	116.463165	0.000000	
8.621324	-0.620585	544.669738	63.851911	-27.916103	2.488839	49.577749	116.481639	0.000000	
5.558860	-1.094213	541.049284	70.051610	-26.863175	1.893470	48.286271	128.774294	0.000000	
-0.290117	-2.127659	534.847937	81.374442	-25.095973	0.954634	46.164732	151.555408	0.000000	
9.765339	-0.298869	546.912853	61.312212	-28.077599	2.546511	49.549101	111.323860	0.000000	
5.640642	-0.919152	542.606700	69.880977	-26.864741	1.843577	48.139848	128.069776	0.000000	
-2.771226	-2.416900	533.650110	84.991101	-24.539780	0.577581	45.488745	158.705034	0.000000	
8.657347	-0.354068	545.707544	63.292924	-27.858319	2.365837	49.372375	115.206836	0.000000	
6.527465	-0.557346	543.988749	68.159803	-27.113887	2.043114	48.382073	124.541033	0.000000	
9.678901	-0.210852	545.529377	62.000857	-27.922410	2.562059	49.401171	112.861532	0.000000	
4.666659	-1.019007	541.227748	72.163320	-26.613670	1.716596	47.901586	132.625472	0.000000	
0.235103	-1.639992	538.309434	79.913532	-25.285704	1.051881	46.160528	147.810918	0.000000	
-1.623951	-1.920879	533.644762	84.002051	-24.662521	0.703413	45.598587	156.801094	0.000000	
8.336527	-0.275565	546.227746	65.189856	-27.578262	2.207921	48.844849	118.561066	0.000000	
7.408934	-0.417404	545.194863	66.868837	-27.269685	2.117024	48.468347	121.881417	0.000000	
9.007187	-0.181123	546.572168	64.156625	-27.763750	2.441019	49.084091	116.585764	0.000000	
9.182507	-0.002827	547.783796	63.511366	-27.646285	2.479604	48.741389	115.129885	0.000000	
10.907148	-0.075966	549.676618	60.841999	-28.109496	2.679126	49.237489	109.881851	0.000000	
7.362706	-0.332907	545.195752	67.688220	-27.266167	2.117938	48.466572	123.375436	0.000000	
7.590165	-0.417456	545.368309	66.826256	-27.391032	2.242793	48.656541	121.764323	0.000000	
1.242013	-1.545714	537.954347	79.957839	-25.433315	0.980122	46.360890	147.981549	0.000000	
5.721882	-0.439136	543.993615	70.788765	-26.740702	1.866602	47.778713	129.360428	0.000000	
8.296682	-0.280484	547.269076	65.664747	-27.456792	2.372194	48.532538	119.202175	0.000000	
6.480754	-0.433526	545.202710	69.454511	-27.079287	2.119134	48.213935	126.623903	0.000000	
8.471384	-0.016557	547.442594	66.053848	-27.454878	2.409344	48.495504	119.847845	0.000000	
7.939043	-0.111743	547.791810	66.872556	-27.392198	2.338877	48.404188	121.275235	0.000000	
12.013718	0.281280	552.443105	59.639644	-28.417698	2.972128	49.432477	107.114805	0.000000	
3.111207	-1.086746	541.410837	75.998136	-25.995290	1.523245	46.904154	139.670372	0.000000	
-4.739102	-2.676001	532.966811	92.402116	-23.572089	0.134722	43.939576	172.842033	0.000000	
4.085834	-0.947967	543.483787	74.535389	-26.152903	1.742423	46.911635	136.428789	0.000000	
11.438414	0.320370	552.793520	60.070376	-28.266216	2.919458	49.185007	107.821614	0.000000	
6.382002	-0.311831	547.627254	70.921951	-26.651351	2.091102	47.225670	128.726858	0.000000	
8.916506	-0.060853	550.038693	65.194040	-27.490632	2.611931	48.282493	117.719687	0.000000	
8.294774	-0.330937	549.520367	66.011166	-27.336371	2.449601	48.111539	119.346048	0.000000	
9.537703	0.165044	551.768037	63.731286	-27.799985	2.776263	48.626186	114.674183	0.000000	
6.390853	-0.351583	547.455579	69.843996	-26.747277	2.214866	47.415041	126.802528	0.000000	
1.600929	-1.200172	542.286548	79.876321	-25.316875	1.385355	45.732377	146.606790	0.000000	
5.556030	-0.578204	546.595353	70.574650	-26.654767	2.176885	47.407350	128.363366	0.000000	
9.936986	0.522433	552.460621	63.000116	-27.682254	2.903530	48.310586	113.169628	0.000000	
8.036708	0.019739	549.873539	66.098259	-27.216804	2.630141	47.889021	119.391478	0.000000	
-1.134953	-1.666259	540.226395	83.577261	-24.518950	1.149466	44.716913	154.068105	0.000000	
9.943777	0.525232	552.981601	62.051943	-27.626928	3.029295	48.163590	111.347303	0.000000	
10.741819	0.620458	554.362578	60.588514	-27.814501	3.192860	48.299233	108.418421	0.000000	
4.627193	0.072379	546.953043	72.299805	-26.226722	2.216054	46.688516	131.366270	0.000000	
-2.457631	-1.236340	539.720153	85.214509	-24.031048	1.150119	43.993107	157.202197	0.000000	
-0.240587	-0.814224	541.786127	80.650722	-24.955820	1.509993	45.299641	148.132333	0.000000	
0.246373	-0.679551	543.169419	79.963024	-25.049918	1.638445	45.305207	146.473019	0.000000	
5.001617	-0.006729	547.820783	69.843205	-26.269334	2.627807	46.652750	126.680687	0.000000	
7.918306	0.860589	553.173479	63.818214	-27.262056	3.048875	47.692457	114.467360	0.000000	
7.969445	0.595211	552.827326	63.989568	-27.170640	3.173361	47.552261	114.876437	0.000000	
9.212507	0.786998	554.032676	61.104400	-27.665877	3.389024	48.215082	109.397745	0.000000	
7.524834	0.857271	552.311890	64.678703	-26.805149	3.101634	46.980793	116.205507	0.000000	
4.698054	0.256096	549.038364	69.370251	-26.183176	2.773817	46.421641	125.509669	0.000000	
5.487141	0.881817	550.766971	67.865459	-26.370746	2.813555	46.533649	122.317281	0.000000	
3.100617	0.458450	549.049936	72.041749	-25.781727	2.579042	45.852722	130.352001	0.000000	
1.199093	-0.090177	545.943091	75.829167	-25.221962	2.287221	45.288250	138.092203	0.000000	
4.342836	0.472369	550.081567	69.629760	-26.002391	2.776821	46.039694	125.719810	0.000000	
7.710826	1.082597	553.699354	62.913498	-27.147285	3.318306	47.460157	112.701429	0.000000	
8.903199	1.581402	554.039813	61.148989	-27.364381	3.444123	47.701597	109.396353	0.000000	
2.491336	0.367107	548.190250	72.341826	-25.660804	2.666428	45.767640	131.114443	0.000000	
-3.275052	-0.796089	540.427006	84.051013	-23.829114	1.545054	43.645747	154.796893	0.000000	
0.225956	0.342528	545.779457	76.993118	-25.037707	2.234400	45.064507	140.222005	0.000000	
-5.663000	-1.086463	538.884008	88.098556	-23.210500	1.293142	42.873653	162.783659	0.000000	
2.976659	0.635985	549.573654	71.352645	-25.725863	2.758983	45.719280	128.954994	0.000000	
8.697096	1.668493	555.604499	60.158709	-27.372032	3.769293	47.599627	107.294843	0.000000	
7.054571	1.072913	554.399294	63.990815	-26.843029	3.464203	46.916859	114.502309	0.000000	
-2.030626	-0.122498	544.926598	80.522992	-24.209759	1.965757	43.849245	146.968323	0.000000	
-1.584168	-0.071842	545.270859	79.187786	-24.517677	2.072796	44.339829	144.421106	0.000000	
-1.055395	0.151425	545.787960	78.930917	-24.669311	2.145974	44.520540	143.789915	0.000000	
-7.435153	-0.973205	538.377255	90.984689	-22.747668	1.097157	42.239759	168.286644	0.000000	
5.022106	1.188820	553.202213	66.229610	-26.504259	3.265618	46.613848	118.787060	0.000000	
3.903629	1.347366	553.728188	69.246768	-26.009349	3.018986	45.788379	124.106196	0.000000	
7.992247	1.658889	558.381122	60.160112	-27.285811	3.847129	47.275430	106.760740	0.000000	
4.710655	1.004899	554.588610	66.833606	-26.473216	3.251136	46.470887	119.595771	0.000000	
0.009290	0.379178	549.939720	76.306528	-25.015404	2.458504	44.699189	137.902864	0.000000	
2.323628	0.715029	552.872723	70.880732	-25.763796	3.016770	45.576653	127.319064	0.000000	
4.490974	0.823195	555.282545	67.350682	-26.381480	3.288799	46.268821	120.394852	0.000000	
0.899851	0.345572	552.012447	73.636328	-25.390362	2.675928	45.117132	132.548212	0.000000	
7.369932	1.562490	558.730577	61.194115	-27.192022	3.741015	47.140003	108.553769	0.000000	
1.700287	0.262911	552.873743	72.646153	-25.515041	2.874361	45.189897	130.557883	0.000000	
-0.335413	0.066420	551.674227	75.574122	-25.233362	2.604265	44.986320	136.170934	0.000000	
-4.822622	-0.603710	547.540852	85.262911	-23.653015	1.723776	42.905424	154.968789	0.000000	
-9.202738	-1.704880	542.022837	92.794384	-22.565655	1.033807	41.797536	170.563821	0.000000	
4.138294	0.729104	557.362903	67.136384	-26.506241	3.328833	46.352529	119.567431	0.000000	
6.922651	1.418387	560.983623	62.315793	-27.008436	3.711321	46.664994	110.128424	0.000000	
4.268875	0.594348	558.746339	67.094188	-26.537485	3.349852	46.278616	119.207386	0.000000	
5.865462	0.965957	560.469916	63.735660	-26.883335	3.638560	46.591115	112.808751	0.000000	
6.221811	1.017898	560.640764	62.141574	-27.222465	3.673175	47.145910	109.925601	0.000000	
0.151748	-0.063178	552.882578	74.799115	-25.297283	2.696023	44.952455	134.482944	0.000000	
3.647930	0.546764	558.922712	67.394597	-26.053609	3.243092	45.460370	119.711769	0.000000	
5.205080	0.563399	560.818861	63.949531	-26.763270	3.584915	46.413616	113.159686	0.000000	
5.342098	0.741800	561.859241	63.174867	-26.707311	3.730358	46.212936	111.552079	0.000000	
3.391188	0.234034	560.483416	66.791628	-26.361345	3.388535	45.906347	118.331664	0.000000	
-0.113821	-0.416943	556.344641	72.860716	-25.460520	2.665601	44.988013	130.192523	0.000000	
-0.555874	-0.513514	556.694173	74.024307	-25.396352	2.667199	44.888562	132.210184	0.000000	
-3.078009	-1.021075	553.591068	78.026358	-24.564698	2.268027	43.897933	140.236529	0.000000	
-7.557798	-1.953512	549.804379	86.637366	-23.322507	1.476110	42.403533	156.965089	0.000000	
0.340569	-0.589804	559.807011	70.449475	-25.716206	3.011596	45.116093	125.092319	0.000000	
3.661121	0.152854	563.771267	63.647485	-26.801180	3.500306	46.387334	112.067924	0.000000	
-1.033794	-0.913160	559.294261	72.558872	-25.376510	2.778492	44.688687	129.011718	0.000000	
-0.367800	-0.859719	558.597527	71.395449	-25.651803	2.847593	45.171342	127.085522	0.000000	
-7.063239	-1.988222	552.572533	83.406937	-23.762063	1.676362	42.932419	150.332052	0.000000	
-2.719146	-1.415477	557.396806	75.614693	-24.850392	2.435262	44.069260	134.986531	0.000000	
-6.663338	-1.939158	553.955568	81.943077	-24.010948	1.767856	43.232049	147.307167	0.000000	
-1.075370	-1.177957	559.812892	72.084434	-25.500206	2.796608	44.871683	128.070490	0.000000	
4.906046	-0.145969	567.745266	60.375105	-27.270456	3.810976	46.760658	105.543517	0.000000	
3.131748	-0.517559	566.195675	63.603723	-26.683691	3.486857	46.030288	111.573722	0.000000	
-1.380573	-1.442774	560.679653	71.092831	-25.748149	2.796801	45.273860	126.129176	0.000000	
1.496499	-1.193738	564.990613	65.581860	-26.284157	3.233413	45.585390	115.381765	0.000000	
3.351924	-0.775560	566.191207	62.223845	-26.900551	3.395439	46.391854	109.163052	0.000000	
-2.132059	-2.071660	560.508471	72.814088	-25.318543	2.707520	44.596696	129.301783	0.000000	
-4.310854	-2.491811	557.574353	77.463661	-24.543130	2.184308	43.664082	138.367693	0.000000	
-2.003705	-1.760879	561.200843	72.341527	-25.411463	2.673324	44.693445	128.268132	0.000000	
3.264117	-1.133385	567.056066	62.611536	-26.930056	3.415165	46.380619	109.714417	0.000000	
-0.588050	-1.966619	563.267289	69.369516	-25.695214	2.818989	44.889331	122.538691	0.000000	
-4.272216	-2.755531	559.475126	76.300703	-24.760911	2.061666	43.898446	135.842627	0.000000	
-7.109895	-3.495843	556.026254	82.801989	-23.888064	1.574057	42.892175	148.457374	0.000000	
-5.512823	-2.946629	557.924051	79.142535	-24.295985	1.880994	43.314126	141.335340	0.000000	
-11.315356	-4.287901	551.028150	90.378087	-22.740114	0.921850	41.633306	163.641003	0.000000	
-6.132544	-3.173267	557.580387	79.917066	-24.293522	1.772683	43.399252	142.834852	0.000000	
2.199366	-2.068780	566.536598	63.641556	-26.563686	3.108590	45.882635	111.726500	0.000000	
3.079768	-2.018668	567.049411	62.953574	-26.837069	3.145360	46.235430	110.406500	0.000000	
2.639450	-2.064197	567.052270	62.823471	-26.717748	3.109156	46.068337	110.181007	0.000000	
1.884456	-2.428195	566.881709	64.545857	-26.529923	2.966268	45.825832	113.288781	0.000000	
3.783037	-1.924629	568.775565	61.705590	-26.842200	3.184687	46.032367	107.865530	0.000000	
-0.775320	-2.941952	563.605738	69.884272	-25.752742	2.496191	44.982617	123.475041	0.000000	
-4.415361	-3.335774	560.162686	77.291039	-24.726149	1.830465	43.795878	137.500955	0.000000	
0.777307	-2.838728	565.674691	66.913686	-26.278727	2.785478	45.591046	117.758817	0.000000	
4.712321	-2.353618	568.592530	59.808554	-27.150334	3.182052	46.497660	104.606474	0.000000	
0.725875	-2.840516	565.326871	67.603020	-26.184157	2.642084	45.457402	119.051302	0.000000	
1.168069	-3.099436	565.494942	66.654137	-26.157006	2.641496	45.351771	117.363398	0.000000	
1.475970	-3.054828	567.051384	66.095532	-26.281105	2.698536	45.413512	116.049509	0.000000	
0.147668	-3.287898	564.634495	68.721203	-25.937453	2.461591	45.134640	121.223106	0.000000	
-5.125882	-4.003401	558.430636	78.623190	-24.477702	1.575634	43.560647	140.382561	0.000000	
-3.360406	-3.720975	561.189325	75.136485	-25.096164	1.740966	44.268181	133.447174	0.000000	
1.031754	-3.280265	566.359813	66.956415	-26.337901	2.571632	45.614216	117.734570	0.000000	
0.892974	-3.193519	564.974469	68.075982	-26.089593	2.426436	45.302276	119.998262	0.000000	
-1.409693	-3.880136	563.254145	72.078976	-25.409803	2.066105	44.465527	127.542553	0.000000	
0.056811	-3.463705	564.459737	68.505076	-26.059049	2.353015	45.373308	120.895472	0.000000	
3.861479	-2.896788	567.553831	62.564222	-26.865942	2.858752	46.167230	109.708446	0.000000	
-3.933967	-4.478195	558.245501	77.458995	-24.630654	1.591923	43.729544	138.391654	0.000000	
-3.456818	-3.943659	559.628021	76.384738	-24.967677	1.523260	44.173955	136.074576	0.000000	
-2.659210	-4.117240	562.566216	75.007766	-25.065502	1.726136	44.033469	132.929285	0.000000	
3.053780	-2.903240	566.863215	63.812796	-26.648902	2.517628	45.921502	112.046336	0.000000	
4.387903	-3.026183	568.760545	61.961588	-26.777358	2.861298	45.859927	108.427166	0.000000	
-0.663256	-3.695100	562.902055	71.303959	-25.471228	2.029411	44.528551	126.227572	0.000000	
-0.799449	-3.874229	562.035266	72.207871	-25.375661	1.920501	44.441999	128.049663	0.000000	
3.676652	-2.942248	566.859865	63.252817	-26.650249	2.660762	45.862503	111.063003	0.000000	
-2.527889	-3.976722	559.621041	74.919554	-25.002138	1.594018	44.142958	133.461427	0.000000	
-4.701140	-4.265423	557.728489	79.182389	-24.260223	1.234291	43.183811	141.589314	0.000000	
6.243885	-2.609610	569.788525	59.120475	-27.179723	3.059486	46.299171	103.202802	0.000000	
3.231975	-3.034511	565.649579	64.328804	-26.524194	2.533235	45.783575	113.213744	0.000000	
3.055948	-3.170088	565.304180	65.017568	-26.370089	2.532937	45.556895	114.515265	0.000000	
-0.356252	-3.290683	560.130660	71.561835	-25.466711	1.952251	44.713948	127.276012	0.000000	
1.195069	-3.189508	562.719176	68.936149	-25.719423	2.261321	44.799050	122.010644	0.000000	
-0.579815	-3.650566	560.303169	72.767613	-25.250103	1.899653	44.335735	129.424623	0.000000	
-2.484725	-3.666863	558.237298	75.652054	-24.755680	1.592218	43.808499	135.075283	0.000000	
2.972355	-2.859329	563.749423	65.275809	-26.368259	2.601564	45.689782	115.260476	0.000000	
5.759393	-2.386889	565.810280	60.195071	-27.051591	2.925823	46.451826	105.811272	0.000000	
4.248899	-2.451788	565.126956	63.770747	-26.645126	2.694134	45.939669	112.273848	0.000000	
-0.980255	-3.477132	559.267414	73.715099	-25.064318	1.808736	44.127283	131.342578	0.000000	
-1.514860	-3.390897	557.711693	74.575492	-24.848243	1.626730	43.918924	133.245265	0.000000	
-3.773027	-3.812463	555.300378	79.009866	-24.075280	1.301544	42.949252	141.855530	0.000000	
-1.071571	-3.429943	557.015872	74.187366	-24.939057	1.660678	44.093155	132.719867	0.000000	
-5.464046	-4.006693	552.018175	83.014105	-23.724886	0.848747	42.746432	149.977371	0.000000	
6.325060	-1.810035	565.288558	60.800047	-26.804788	2.890889	46.002682	106.922630	0.000000	
6.547756	-1.892810	564.420463	60.109822	-27.018193	2.870029	46.430604	105.873667	0.000000	
2.955282	-2.376344	561.670539	67.516718	-25.841236	2.313499	44.925197	119.631566	0.000000	
1.358438	-2.964325	558.213180	70.786698	-25.403164	1.912871	44.584054	126.294593	0.000000	
5.659001	-1.814106	563.733730	62.004689	-26.406131	2.727111	45.490854	109.357077	0.000000	
-5.907586	-4.099150	549.249549	85.079884	-23.139518	0.736911	41.945424	154.508004	0.000000	
-4.273177	-3.462713	551.665843	81.550472	-23.637459	0.937782	42.494636	147.365234	0.000000	
2.290137	-2.334429	559.250128	68.677866	-25.562993	2.129646	44.692244	122.224897	0.000000	
6.461349	-1.853577	563.730246	61.574538	-26.588264	2.959878	45.734366	108.598642	0.000000	
4.275541	-2.009990	560.796000	66.612880	-25.901441	2.329859	44.971746	118.171033	0.000000	
-0.950498	-2.633775	554.766012	75.653301	-24.536522	1.497271	43.537330	135.823325	0.000000	
0.559805	-2.795318	555.795095	73.068834	-24.969224	1.766230	44.081319	130.936609	0.000000	
2.200785	-2.116710	558.386672	69.841369	-25.285225	2.147227	44.274102	124.476964	0.000000	
-2.578252	-2.914381	551.834606	78.838180	-23.979837	1.438748	42.929502	142.349120	0.000000	
-1.384223	-2.728339	553.386143	77.117137	-24.349149	1.620599	43.353236	138.818850	0.000000	
8.320580	-1.077142	563.375189	58.043290	-26.871706	3.172675	46.081632	102.322248	0.000000	
7.259169	-1.090605	562.171046	60.541565	-26.650468	3.082188	45.894418	106.988479	0.000000	
6.547283	-1.011206	562.002525	62.006561	-26.463788	2.957657	45.647319	109.619620	0.000000	
3.940826	-1.602575	556.475588	66.049253	-25.599835	2.516784	44.818771	118.040880	0.000000	
1.404750	-1.942811	554.236923	71.820452	-24.941829	1.960250	44.072496	128.968269	0.000000	
-2.883792	-2.692045	549.240934	79.611798	-23.551715	1.433929	42.387678	144.410981	0.000000	
-6.568313	-3.392171	544.410304	86.973495	-22.584341	0.656820	41.373594	159.294061	0.000000	
1.013293	-1.900184	553.375801	72.164036	-24.699039	2.030250	43.743251	129.786790	0.000000	
7.046831	-0.953638	559.577703	60.625350	-26.316205	3.148179	45.534705	107.624074	0.000000	
1.324833	-1.673928	553.548386	71.173630	-24.793789	2.101791	43.868957	127.933942	0.000000	
-0.488995	-2.134996	551.134203	74.918650	-24.204435	1.847629	43.179880	135.339958	0.000000	
6.732057	-1.044413	558.365583	61.529142	-26.281062	2.966730	45.603955	109.487234	0.000000	
0.221240	-1.818133	551.131880	73.842773	-24.449854	1.990584	43.553059	133.356151	0.000000	
-1.633547	-2.184725	548.371573	76.380552	-23.805239	1.734570	42.790524	138.696864	0.000000	
1.990323	-1.534957	553.025751	70.570996	-25.006386	2.207888	44.228066	126.951812	0.000000	
7.134394	-0.548780	557.673620	60.107691	-26.346715	3.072116	45.738763	107.025334	0.000000	
7.534800	-0.545252	558.017830	59.418934	-26.591301	3.161847	46.108116	105.724167	0.000000	
6.204935	-0.826802	556.639934	62.562317	-26.095087	2.963807	45.466804	111.663334	0.000000	
3.329833	-1.248539	552.674165	67.124156	-25.321589	2.527126	44.691036	120.767354	0.000000	
4.204187	-0.757345	553.707718	66.566747	-25.413146	2.512374	44.682899	119.483953	0.000000	
-0.395461	-1.777007	548.019420	75.434670	-24.229876	1.895056	43.466625	137.018767	0.000000	
-6.161793	-3.026166	540.255202	86.583391	-22.491269	0.737064	41.483361	159.765358	0.000000	
5.980389	-0.781465	555.081909	63.034815	-25.849768	2.817430	45.177378	112.825676	0.000000	
4.430142	-0.973459	552.493699	66.306495	-25.291914	2.562940	44.540438	119.299183	0.000000	
2.256520	-1.303372	549.734385	70.224016	-24.822765	2.128796	44.136394	127.061948	0.000000	
-1.108893	-1.782728	546.810468	76.812225	-23.891124	1.678428	43.018167	139.843343	0.000000	
3.238651	-0.893913	549.039277	68.716977	-25.069406	2.413321	44.542125	124.437134	0.000000	
0.840384	-1.407475	546.799770	73.926763	-24.141654	1.945929	43.277177	134.530589	0.000000	
0.216036	-1.324576	546.283528	74.831358	-24.138205	1.766140	43.376632	136.305884	0.000000	
1.149152	-1.358017	546.624051	73.108211	-24.355955	1.926845	43.651695	133.071554	0.000000	
8.595763	0.133122	554.897181	58.815269	-26.286379	3.227642	45.715059	105.166833	0.000000	
7.927818	-0.093747	553.513721	60.235423	-26.158883	3.010059	45.668656	108.020425	0.000000	
4.293682	-0.308427	548.860460	67.555654	-25.222832	2.431118	44.728575	122.302208	0.000000	
7.178912	-0.145304	552.134347	61.785179	-25.910834	2.972150	45.411565	111.104404	0.000000	
0.487654	-1.009778	544.034107	74.959814	-23.984384	1.887152	43.248483	137.076479	0.000000	
1.952623	-0.770708	544.718943	71.987959	-24.237138	2.137755	43.506229	131.422738	0.000000	
-0.486114	-1.503050	541.093601	77.153419	-23.580719	1.648460	42.842748	141.930994	0.000000	
8.104890	0.439874	551.611115	60.709495	-25.943205	3.042995	45.419883	109.200963	0.000000	
8.335840	0.353368	551.784984	60.149498	-26.157842	3.257683	45.770825	108.160211	0.000000	
7.313925	0.299704	549.885720	62.345059	-25.785427	3.022003	45.358647	112.534830	0.000000	
0.051642	-1.009628	541.267896	75.862163	-23.646641	1.881528	42.894746	139.448266	0.000000	
0.048174	-1.184751	540.745946	75.775185	-23.767057	1.754406	43.159955	139.440973	0.000000	
-5.222642	-1.592585	534.718449	86.022692	-22.034233	0.995369	40.967785	160.229052	0.000000	
-3.267975	-1.397014	536.959429	82.320218	-22.805015	1.409899	42.024728	152.641257	0.000000	
-2.295228	-1.250826	537.299118	80.209272	-22.842528	1.481136	41.965899	148.600165	0.000000	
9.093155	0.676811	549.704516	58.898756	-25.918196	3.378177	45.433781	106.264328	0.000000	
9.131743	0.855243	549.010303	58.985091	-26.007365	3.251410	45.650702	106.538745	0.000000	
5.324417	0.242988	544.010782	66.303270	-24.859764	2.671097	44.360635	121.040735	0.000000	
4.262982	0.012625	543.150883	67.852558	-24.491549	2.526575	43.863837	124.109853	0.000000	
-0.526290	-0.788889	536.769756	77.840912	-23.060218	1.658382	42.228711	144.286984	0.000000	
0.985213	-0.329609	538.841727	74.267415	-23.498607	2.019333	42.719491	137.049405	0.000000	
-6.676759	-1.950220	528.319737	88.816246	-21.233011	0.713514	40.111384	167.505104	0.000000	
9.757622	1.308625	547.971041	57.563090	-25.921174	3.427887	45.517396	104.100891	0.000000	
7.770169	0.713484	545.904394	61.178785	-25.424053	3.209827	44.986328	111.182548	0.000000	
6.792364	0.615078	544.524137	63.288456	-25.052386	2.993173	44.520557	115.350911	0.000000	
6.397215	0.702200	544.181577	63.330960	-24.932055	2.992380	44.368697	115.493159	0.000000	
2.102616	-0.576329	537.622336	71.680334	-23.748899	2.228990	43.167106	132.575763	0.000000	
-3.530850	-1.077053	531.940601	82.531129	-22.044002	1.255975	41.025751	154.451831	0.000000	
-0.376335	-0.423738	535.735474	75.685446	-23.009350	1.941119	42.201102	140.505490	0.000000	
-6.046133	-1.404804	527.281636	86.360429	-21.484386	0.942486	40.601537	163.120939	0.000000	
8.043465	1.031891	545.213130	59.670435	-25.460348	3.350631	45.082810	108.525243	0.000000	
7.735410	1.031478	544.349569	59.927825	-25.277736	3.312983	44.851862	109.171581	0.000000	
5.164524	0.737149	542.113889	65.181392	-24.471674	2.935233	43.819278	119.346512	0.000000	
3.532594	0.018996	538.485037	67.847231	-23.946120	2.676786	43.313939	125.181722	0.000000	
-1.746257	-0.521430	532.627345	77.965797	-22.636642	1.720306	41.896519	145.621765	0.000000	
0.067518	-0.151124	535.214679	74.823557	-22.860616	2.011566	41.918506	139.004062	0.000000	
-8.077824	-1.954040	524.176529	90.319322	-20.470738	0.704979	39.130399	171.703434	0.000000	
8.314812	1.396028	543.309460	58.677869	-25.039429	3.435883	44.440777	107.043852	0.000000	
6.630655	0.803432	542.104594	61.648078	-24.786622	3.129558	44.249269	112.823940	0.000000	
6.276591	0.976666	541.935021	62.208336	-24.633685	3.111970	44.017814	113.875372	0.000000	
4.463961	1.048014	539.351058	65.523682	-24.106884	2.911451	43.444305	120.564323	0.000000	
5.259355	0.968811	541.249181	63.370318	-24.297558	2.985721	43.559020	116.168364	0.000000	
-1.433181	0.015730	532.975441	76.717100	-22.339795	1.864554	41.278719	143.126698	0.000000	
-1.421393	-0.066884	532.457799	75.466157	-22.436357	2.023089	41.499724	140.925964	0.000000	
6.246726	1.202573	541.247397	61.173619	-24.608684	3.360508	44.031641	112.085932	0.000000	
7.041112	1.607337	542.802483	59.711002	-24.675286	3.489251	43.943823	109.026080	0.000000	
4.432847	0.833035	539.352656	63.970880	-24.084405	3.088735	43.405734	117.707317	0.000000	
3.893402	1.003359	539.701439	64.833340	-24.051282	2.893270	43.371883	119.211047	0.000000	
-3.324839	-0.132604	532.643964	78.352307	-21.944265	1.846335	40.761586	146.301882	0.000000	
-0.001487	0.300372	536.433886	71.549647	-23.240877	2.351798	42.537531	132.535961	0.000000	
-4.918036	-0.545530	531.786371	80.633369	-21.573793	1.612325	40.300034	150.872129	0.000000	
0.979897	0.529871	538.855213	69.182526	-23.615069	2.696213	42.935083	127.519995	0.000000	
6.603531	1.871674	544.019927	58.634880	-24.954788	3.544601	44.402623	106.774919	0.000000	
4.745079	1.277034	543.856123	61.432919	-24.462403	3.312424	43.702609	112.013486	0.000000	
-0.309986	0.741855	536.958331	71.205617	-22.941421	2.389296	41.969760	131.718886	0.000000	
0.488753	0.926301	538.859325	69.225728	-23.283038	2.571466	42.369717	127.557911	0.000000	
-1.498228	0.287343	536.965576	72.625876	-22.877756	2.353439	41.974782	134.409563	0.000000	
-2.081629	0.545392	536.103379	74.263291	-22.628599	2.156199	41.639858	137.654318	0.000000	
0.939995	0.933074	539.377734	67.588948	-23.713800	2.767996	43.079925	124.399256	0.000000	
3.375601	1.444975	542.827584	62.551756	-24.187623	3.167294	43.422260	114.271036	0.000000	
4.484271	1.804783	545.420944	60.745999	-24.710108	3.459114	44.055949	110.376065	0.000000	
-2.861941	0.231065	537.149797	73.659156	-22.786398	2.353948	41.932485	136.292699	0.000000	
-0.962961	0.867820	539.910325	70.259478	-23.102033	2.609896	42.101321	129.228769	0.000000	
4.316242	1.892372	546.810402	59.927958	-24.655708	3.658732	43.859756	108.588519	0.000000	
0.146107	1.100801	541.982562	67.504296	-23.567520	2.827691	42.681383	123.623918	0.000000	
0.720753	1.103695	543.883569	66.428800	-23.814668	2.938773	42.924579	121.211245	0.000000	
2.279581	1.432775	545.262306	62.639078	-24.313893	3.315605	43.569212	113.918562	0.000000	
-4.501685	0.303387	537.853434	75.382271	-22.389846	2.159644	41.310369	139.309478	0.000000	
-3.121822	0.269533	540.617144	72.885636	-22.703476	2.558441	41.532081	133.978547	0.000000	
-2.586669	0.632561	541.308838	70.861699	-22.923934	2.702075	41.829803	130.029709	0.000000	
0.732680	1.457767	545.793765	65.009102	-24.126322	3.246706	43.341378	118.146618	0.000000	
1.181378	1.158509	544.923872	63.628216	-24.070303	3.314854	43.262822	115.833244	0.000000	
1.756391	1.517434	546.826819	61.993419	-24.350303	3.443797	43.562573	112.400882	0.000000	
-0.459917	1.449803	545.282634	66.084240	-23.428321	3.138909	42.225387	120.230655	0.000000	
-0.812766	1.271353	544.244834	66.427945	-23.729029	3.046369	42.896307	121.111391	0.000000	
-2.403216	0.856162	543.561627	69.097185	-23.266692	2.902829	42.264817	126.218145	0.000000	
-2.668362	1.033181	542.871661	69.225817	-23.024192	2.865826	41.900241	126.598247	0.000000	
-1.336088	1.576443	544.425600	66.557861	-23.760886	3.172379	42.994252	121.278096	0.000000	
-1.376079	1.090627	544.597115	66.383839	-23.580537	3.207937	42.653423	120.970154	0.000000	
1.239165	1.604389	547.526962	61.217546	-24.265977	3.659516	43.404851	110.830151	0.000000	
-3.818326	1.063832	542.360871	71.336607	-22.775247	2.776635	41.600408	130.606925	0.000000	
-1.197120	1.404471	546.156334	64.747999	-23.709988	3.300046	42.748042	117.595048	0.000000	
-7.133786	0.235350	539.262706	76.932337	-21.999117	2.360040	40.749653	141.824788	0.000000	
-3.633273	0.888832	544.092354	70.087585	-22.903511	2.976298	41.682171	127.911144	0.000000	
-4.203735	0.710242	542.710568	70.473480	-22.932292	2.918950	41.902312	128.968400	0.000000	
-1.636670	1.397057	546.507028	65.696280	-23.647015	3.355310	42.650003	119.254993	0.000000	
-5.708080	0.606880	541.335199	73.056803	-22.499662	2.738346	41.367506	134.080980	0.000000	
-2.965057	1.162671	545.302414	68.021129	-23.305832	3.156716	42.256968	123.807761	0.000000	
0.974889	1.911279	550.128850	60.142594	-24.394938	3.736422	43.457213	108.316824	0.000000	
-4.120150	0.933447	543.402330	69.828062	-22.965453	2.848652	41.900360	127.592405	0.000000	
-13.113492	-0.487295	534.449526	87.092994	-20.268998	1.477424	38.514306	162.196673	0.000000	
-2.743741	1.119722	546.512882	67.375534	-23.339535	3.212807	42.200576	122.354852	0.000000	
-3.538057	0.848212	545.131764	68.666017	-23.152939	3.102494	42.048948	125.062133	0.000000	
-6.556994	0.595741	542.204779	74.393036	-22.405129	2.526250	41.213397	136.330236	0.000000	
-3.811251	0.931597	545.651781	69.399243	-23.089753	2.961143	41.920418	126.277361	0.000000	
-0.976449	1.622935	549.446749	63.846349	-23.867906	3.450601	42.752202	115.222628	0.000000	
-1.592263	1.398336	548.238191	64.662874	-23.592550	3.394319	42.408951	116.990768	0.000000	
-5.757249	0.780969	543.067083	72.800100	-22.592943	2.706504	41.409918	133.160117	0.000000	
-6.646905	0.416988	543.243021	74.349872	-22.224830	2.510624	40.810517	136.007137	0.000000	
-7.131502	0.190751	542.899271	75.124548	-22.222292	2.474067	40.882265	137.544073	0.000000	
-4.125079	1.281987	546.001308	69.701908	-23.028798	2.890984	41.813689	126.714327	0.000000	
-2.390870	1.434182	547.204399	66.213432	-23.556197	3.249612	42.506011	120.043250	0.000000	
0.166755	1.722488	550.823101	61.909215	-24.207161	3.452543	43.142864	111.405747	0.000000	
-4.653002	1.008901	545.485127	71.122809	-22.902518	2.890522	41.676803	129.467930	0.000000	
-2.218747	1.433557	547.202229	66.644641	-23.493058	3.196483	42.373148	120.831818	0.000000	
-3.290841	1.332390	546.860144	68.884469	-23.091278	2.892815	41.775443	125.014089	0.000000	
-14.892397	-1.082424	533.070770	90.881596	-19.679479	1.064361	37.697304	169.788055	0.000000	
-2.751029	1.338001	547.205234	67.721710	-23.398698	3.125427	42.255050	122.809257	0.000000	
-0.177053	1.408129	551.173006	62.253272	-24.237790	3.614198	43.205546	111.990736	0.000000	
-2.436596	1.122579	548.241449	66.127305	-23.678353	3.215532	42.651613	119.689433	0.000000	
-1.506966	1.264390	549.448155	64.405252	-23.836248	3.360707	42.748648	116.276152	0.000000	
0.216948	1.279764	551.168261	61.908114	-24.086732	3.560351	42.891746	111.378544	0.000000	
-4.126175	0.528667	546.862209	69.700656	-23.150115	2.820112	41.968578	126.588568	0.000000	
-3.276169	0.849644	547.899555	67.332049	-23.220948	3.125777	41.929863	121.991419	0.000000	
-9.436123	-0.273068	540.140596	79.299818	-21.480103	2.058096	39.960418	146.028855	0.000000	
-9.968787	-0.547071	540.315851	80.721112	-21.263339	1.987712	39.601335	148.640168	0.000000	
-1.329873	0.912226	551.003697	63.543388	-23.840888	3.381056	42.616131	114.417288	0.000000	
1.065002	1.598672	553.244129	59.325397	-24.552505	3.849927	43.483742	106.256926	0.000000	
-3.284238	0.756761	548.936364	67.979230	-23.157950	3.021322	41.735241	122.947938	0.000000	
-12.490907	-1.321284	538.769507	84.120509	-20.798575	1.590847	39.117276	155.459304	0.000000	
-0.082634	0.968990	553.248805	60.658512	-24.216482	3.724466	42.992394	108.729494	0.000000	
-5.049004	0.035688	547.905812	69.741978	-22.941521	2.803549	41.600932	126.471807	0.000000	
-12.711899	-1.279381	537.559315	84.981815	-20.763986	1.552941	39.165834	157.408993	0.000000	
-7.528992	-0.210643	544.631149	74.736191	-22.105359	2.441211	40.576007	136.432397	0.000000	
0.096567	0.617484	554.111463	59.710642	-24.704910	3.742562	43.787552	106.883935	0.000000	
-1.720668	0.599802	551.179554	63.585394	-23.842226	3.452426	42.644492	114.488537	0.000000	
-2.742741	0.324299	550.664111	65.221244	-23.654889	3.219002	42.449085	117.595221	0.000000	
-1.411587	0.383009	551.694991	62.637401	-24.118132	3.434392	43.072586	112.684535	0.000000	
-1.903255	0.285166	552.562949	63.973513	-23.871880	3.347981	42.607962	114.934217	0.000000	
-0.397622	0.833263	552.555842	61.390430	-24.364007	3.543816	43.346271	110.205259	0.000000	
-1.592235	0.643248	551.524238	63.672533	-24.083508	3.399485	43.041763	114.570055	0.000000	
-17.060662	-2.521016	533.942621	93.678339	-19.460502	0.725380	37.452200	174.898571	0.000000	
-8.019416	-0.881284	544.283113	75.984560	-22.462963	2.242828	41.310031	138.882895	0.000000	
-0.224325	1.009001	554.459779	60.832487	-24.579365	3.565855	43.565594	108.799973	0.000000	
-6.823114	-0.559349	546.008803	73.487648	-22.715046	2.460482	41.515729	133.835272	0.000000	
-5.674625	-0.017883	547.908561	71.293191	-22.844928	2.643447	41.488492	129.307807	0.000000	
0.975541	1.023552	553.760114	59.108655	-24.644448	3.760342	43.617588	105.824034	0.000000	
-3.414358	0.005385	549.105923	67.546634	-23.583480	2.947960	42.510357	122.198680	0.000000	
-3.105937	0.268910	550.664807	67.376795	-23.766590	3.059400	42.688885	121.515168	0.000000	
-8.997575	-0.981960	542.037380	78.998941	-22.086564	2.025073	40.891286	145.033300	0.000000	
-9.227624	-0.985902	542.556087	79.559544	-22.054112	1.847585	40.815417	145.927534	0.000000	
-6.518815	-0.560327	545.313177	74.392934	-22.800099	2.406109	41.694355	135.667257	0.000000	
-1.778340	0.371923	550.656013	65.352530	-24.195883	3.183403	43.333907	117.830528	0.000000	
2.026044	1.116068	554.789915	58.680640	-25.279199	3.708823	44.573050	104.845247	0.000000	
-5.240995	-0.284172	546.863145	72.499702	-23.139318	2.498440	42.063143	131.790113	0.000000	
0.914208	0.792078	553.755690	61.565697	-24.783640	3.475604	43.875519	110.285389	0.000000	
-0.500766	0.558188	552.378895	63.803766	-24.322037	3.294553	43.294905	114.637750	0.000000	
-8.303434	-1.024793	543.068110	79.086830	-22.265907	1.884532	41.070702	144.922751	0.000000	
-16.235465	-2.124490	534.109561	94.715977	-19.967461	0.619957	38.302726	176.744739	0.000000	
-1.610325	0.635626	550.308209	66.215297	-24.100097	3.076566	43.170603	119.446414	0.000000	
-3.208574	0.041220	548.755653	69.918246	-23.752677	2.752445	42.825282	126.595334	0.000000	
-0.371220	0.380092	551.510506	64.579136	-24.559173	3.221172	43.781110	116.243555	0.000000	
1.977223	0.845547	553.749179	60.446446	-25.118972	3.618266	44.373900	108.260055	0.000000	
-5.112465	-0.289555	546.342838	74.223607	-22.888859	2.499271	41.632325	135.072304	0.000000	
-6.005508	-0.340325	544.268110	76.031437	-22.638277	2.173236	41.425689	138.917106	0.000000	
1.655799	0.795137	553.748129	61.696286	-25.113221	3.368407	44.396168	110.522425	0.000000	
-11.585915	-1.373080	538.585479	87.010539	-21.175113	1.342643	39.735754	160.884059	0.000000	
-8.882320	-1.342645	540.298980	81.756181	-22.222283	1.682705	41.264609	150.643186	0.000000	
2.417877	0.846087	553.573046	60.748987	-25.388619	3.654001	44.830709	108.841227	0.000000	
1.974603	0.976259	552.191187	61.609749	-25.172813	3.562112	44.599091	110.661222	0.000000	
0.377616	0.561866	551.159721	64.493826	-24.527154	3.274837	43.675150	116.144768	0.000000	
1.888959	0.886499	552.538450	61.609654	-25.143309	3.616517	44.525867	110.600104	0.000000	
2.098974	0.976449	553.226999	61.395015	-25.113218	3.439113	44.393778	110.064341	0.000000	
-0.514243	0.330085	550.296963	66.603812	-24.276485	3.023315	43.380277	120.186034	0.000000	
-0.602713	0.242290	549.777371	66.732237	-24.094096	2.986381	43.099298	120.542945	0.000000	
-8.494412	-0.857433	540.297393	82.662901	-21.944721	1.631162	40.710728	152.271429	0.000000	
-11.017545	-1.679883	538.404934	87.182767	-21.323420	1.252598	39.965568	161.290141	0.000000	
-1.577975	-0.034263	548.569406	68.842089	-24.055424	2.805397	43.225194	124.684558	0.000000	
3.116384	1.380844	554.781554	60.191321	-25.178417	3.657844	44.281801	107.543080	0.000000	
-4.411809	-0.504384	544.256684	74.610491	-23.185321	2.351239	42.267398	136.326152	0.000000	
1.788733	0.486855	552.360142	62.297927	-25.048368	3.329580	44.378793	111.922725	0.000000	
0.108477	0.202255	550.639407	65.957680	-24.308735	3.167019	43.347924	118.950390	0.000000	
-4.244128	-0.414865	545.292335	74.180717	-23.277734	2.210112	42.337845	135.268325	0.000000	
-7.431123	-1.070746	542.886745	80.553649	-22.468172	1.814237	41.367105	147.678074	0.000000	
-1.001741	-0.028640	549.951542	67.464315	-24.182508	2.915080	43.286873	121.863320	0.000000	
-10.049199	-1.578684	538.916306	85.201305	-21.450861	1.234632	40.062556	157.449034	0.000000	
-0.996929	-0.159482	548.219729	67.850539	-24.149274	2.947020	43.364988	122.968750	0.000000	
3.962379	1.039674	555.466757	57.691817	-25.732624	3.763967	45.138482	102.944053	0.000000	
3.473365	0.856980	553.217707	59.887060	-25.147139	3.635413	44.316458	107.352530	0.000000	
-2.681208	-0.264665	546.844612	70.649438	-23.836797	2.676799	43.077412	128.409078	0.000000	
2.636597	0.718473	553.050128	60.316908	-25.177456	3.580863	44.469835	108.176590	0.000000	
-1.312997	0.190178	549.434539	67.981291	-23.998967	2.860926	43.026077	122.897334	0.000000	
-7.341441	-0.886482	541.674459	79.647704	-22.380107	1.775060	41.289580	146.318824	0.000000	
0.154390	0.251245	550.119607	65.138446	-24.432763	3.147026	43.610400	117.569363	0.000000	
-5.379410	-0.774592	543.743190	75.081941	-22.761815	2.296107	41.629032	137.350590	0.000000	
-2.415961	-0.168061	546.149771	69.528308	-23.779852	2.638598	43.001702	126.510768	0.000000	
-0.149631	0.295344	549.603186	65.051439	-24.312839	3.199490	43.464954	117.517788	0.000000	
-1.433721	-0.068995	547.184997	67.461153	-23.939688	2.944224	43.110244	122.481925	0.000000	
-2.939482	-0.126498	545.462852	69.871902	-23.537575	2.708916	42.666531	127.296748	0.000000	
0.472150	0.392962	549.426546	63.715672	-24.347543	3.287865	43.478846	115.114659	0.000000	
-4.183470	-0.360026	543.390716	72.627036	-23.132657	2.419301	42.215517	132.879651	0.000000	
-8.126198	-0.932749	539.950571	80.076038	-22.046606	1.842777	40.887814	147.586660	0.000000	
-4.262662	-0.623584	543.391839	71.979655	-23.227029	2.543508	42.397277	131.715217	0.000000	
-0.496373	0.386526	548.048895	64.834139	-24.071720	3.231558	43.185995	117.447546	0.000000	
-4.310776	-0.405139	543.912370	72.411406	-22.983616	2.527815	41.913390	132.359640	0.000000	
1.587599	0.540903	549.941610	60.829804	-24.903311	3.555352	44.334178	109.743399	0.000000	
1.184402	0.667568	550.636760	61.562933	-24.689629	3.468295	43.930235	110.922343	0.000000	
0.478505	0.484133	548.908893	63.112359	-24.622425	3.375452	44.020721	114.115553	0.000000	
-2.538130	0.143479	545.635712	69.011159	-23.692222	2.834395	42.894919	125.650896	0.000000	
0.078727	0.215704	548.736237	63.628141	-24.439142	3.267579	43.741688	115.119106	0.000000	
-5.241048	-0.545405	542.012498	74.047003	-23.037057	2.326937	42.257964	135.858596	0.000000	
-3.203506	-0.217774	545.464601	70.259229	-23.415594	2.709112	42.469923	128.015813	0.000000	
2.251770	0.679203	551.323406	59.495706	-25.090536	3.683189	44.493086	107.032426	0.000000	
-3.158733	-0.083693	544.945580	70.130179	-23.597126	2.707787	42.839631	127.887895	0.000000	
-8.870443	-1.292747	538.916636	81.108077	-21.952574	1.858293	40.870773	149.823877	0.000000	
0.652671	0.350938	549.599017	63.112806	-24.682892	3.359038	44.056696	113.985650	0.000000	
-0.366566	0.296576	548.739629	64.964109	-24.192234	3.215243	43.336990	117.544733	0.000000	
-4.180010	-0.670645	543.909321	72.497538	-23.315332	2.473488	42.510013	132.546133	0.000000	
0.737231	0.485203	549.424823	62.983818	-24.713041	3.287066	44.117152	113.773566	0.000000	
-3.295502	-0.088781	545.984904	70.691267	-23.535193	2.674948	42.657206	128.671088	0.000000	
-4.047861	-0.714545	543.388700	72.841993	-23.282751	2.472657	42.477892	133.312339	0.000000	
-4.003581	-0.451255	545.122021	72.413148	-23.346836	2.566279	42.453325	132.072066	0.000000	
-1.913927	-0.294898	545.976701	68.493837	-23.935600	2.977532	43.249255	124.669447	0.000000	
-0.947234	-0.330617	547.699532	66.857990	-24.123036	2.980433	43.353927	121.291632	0.000000	
1.493350	0.355678	550.633332	62.338722	-24.866904	3.504449	44.220980	112.363722	0.000000	
1.802266	0.493797	550.804498	61.305081	-25.052281	3.504055	44.512081	110.437879	0.000000	
-6.133643	-1.047688	541.495217	77.277198	-22.509567	2.113129	41.417437	142.006527	0.000000	
-0.727326	0.158113	547.527502	66.557709	-24.244805	3.016311	43.567659	120.731482	0.000000	
3.044014	0.593516	552.355925	59.152600	-25.363111	3.739187	44.821444	106.218366	0.000000	
-3.073354	-0.398672	545.635878	71.207614	-23.471611	2.710224	42.545624	129.732104	0.000000	
0.163830	-0.143476	548.040961	65.394116	-24.279036	3.231549	43.497326	118.525298	0.000000	
0.469899	0.388800	549.946540	64.319936	-24.496509	3.289534	43.708095	116.104240	0.000000	
-2.761202	-0.127101	545.289316	70.259884	-23.475012	2.780740	42.547282	128.049098	0.000000	
-2.763553	-0.217806	545.807808	70.432891	-23.716484	2.745918	42.948770	128.252983	0.000000	
-0.447606	0.072006	548.395121	65.653032	-24.219955	3.358000	43.423550	118.898316	0.000000	
-7.366195	-0.969660	540.639876	78.525957	-22.567139	2.075686	41.718614	144.534162	0.000000	
-1.648561	-0.073674	547.881335	67.720406	-24.061304	3.089161	43.298428	122.798893	0.000000	
3.446940	0.862673	553.221971	58.119919	-25.489061	3.919917	44.936846	104.156847	0.000000	
0.967283	0.350860	550.118876	63.070499	-24.713626	3.539566	44.038098	113.800268	0.000000	
-10.418675	-1.752167	536.847212	84.638062	-21.273100	1.658768	39.927493	157.027963	0.000000	
-1.421373	-0.156895	547.534069	66.771983	-24.306975	3.176736	43.751795	121.153649	0.000000	
-2.175650	0.143583	546.848370	68.495453	-23.877114	3.105539	43.098964	124.427396	0.000000	
-5.360881	-0.593329	543.229395	73.918298	-22.949507	2.634185	42.012748	135.320460	0.000000	
-0.486830	0.119977	547.530599	65.049067	-24.373464	3.391052	43.777743	117.979346	0.000000	
0.314491	0.391079	549.433283	63.457235	-24.562496	3.663480	43.885632	114.643060	0.000000	
0.671961	0.223164	549.083425	61.905072	-24.810177	3.678755	44.328648	111.906957	0.000000	
1.683688	0.669654	550.983779	61.046824	-24.964492	3.809042	44.350085	109.915052	0.000000	
-1.856957	-0.204438	547.019336	67.373951	-23.882017	3.265817	43.061522	122.373744	0.000000	
-3.898428	-0.269230	544.433908	71.249590	-23.624733	2.868079	43.007573	130.084073	0.000000	
-9.129480	-1.293969	537.881154	81.494982	-21.920807	1.927722	40.918932	150.833310	0.000000	
-6.284510	-0.820626	541.330763	75.208512	-22.853763	2.558402	42.081728	138.204898	0.000000	
-1.733003	0.195316	546.671991	67.374994	-23.941299	3.122244	43.185102	122.412893	0.000000	
-3.272843	-0.083115	544.258940	69.827814	-23.629955	3.046112	42.966754	127.494652	0.000000	
-4.785628	-0.411201	543.919220	72.885575	-23.195428	2.724786	42.351253	133.230352	0.000000	
-12.710623	-1.952408	535.132864	88.125891	-21.080668	1.548951	39.938641	164.072303	0.000000	
-2.782730	-0.301547	545.986987	68.708642	-23.968275	3.192135	43.397554	125.061192	0.000000	
3.190299	0.863623	553.572048	57.300702	-25.524510	4.045116	44.997979	102.610496	0.000000	
2.003217	0.540515	552.022452	59.840720	-25.152281	4.043031	44.572862	107.534953	0.000000	
1.420129	0.447160	550.811292	61.089151	-25.115975	3.772162	44.666086	110.049236	0.000000	
-0.089886	0.296981	550.127144	64.146711	-24.409257	3.522237	43.591977	115.760338	0.000000	
-14.836303	-2.546209	531.679905	92.128105	-20.519834	1.148809	39.372626	172.733291	0.000000	
-10.106115	-1.355155	538.926800	83.822570	-21.701877	1.860314	40.533457	154.864383	0.000000	
-0.660316	0.067037	549.785211	65.525066	-24.495319	3.557780	43.834333	118.363386	0.000000	
0.668703	0.569643	550.817977	62.554440	-24.960259	3.755537	44.459379	112.695619	0.000000	
-7.087875	-0.971388	542.547197	77.924418	-22.693175	2.455884	41.772706	142.914642	0.000000	
-5.936231	-0.825672	543.579172	75.642005	-22.883128	2.618130	41.922481	138.427877	0.000000	
-10.010253	-1.354897	539.967256	83.090972	-21.948553	2.041006	40.900710	153.209490	0.000000	
-8.500005	-1.160788	539.786252	80.721948	-22.197866	2.308033	41.219578	148.852143	0.000000	
1.200987	0.661753	550.988679	62.081402	-25.142960	3.863278	44.722744	111.792548	0.000000	
1.512856	0.444821	550.812581	61.692531	-24.901901	3.916374	44.267882	111.144651	0.000000	
0.889347	0.391921	550.815630	62.899368	-25.139642	3.773486	44.762764	113.340419	0.000000	
0.709789	0.655342	550.990994	63.115454	-25.018205	3.738687	44.546153	113.669442	0.000000	
-0.221805	0.248011	549.955310	64.965936	-24.678139	3.540100	44.108218	117.291379	0.000000	
-3.983159	-0.318465	543.916662	72.499015	-23.437950	2.975646	42.714558	132.510719	0.000000	
0.179884	0.119916	550.645266	63.974991	-24.742926	3.648266	44.128690	115.356841	0.000000	
2.704594	0.851266	553.749940	59.198036	-25.820189	4.082571	45.566443	106.004860	0.000000	
-0.355068	0.333457	550.822671	65.052984	-24.678908	3.560195	44.052494	117.254734	0.000000	
-3.363234	-0.271663	546.337410	71.122883	-23.959117	3.123297	43.412069	129.396343	0.000000	
-6.297875	-0.656103	543.407799	76.892843	-23.210479	2.457380	42.575696	140.756122	0.000000	
-12.988447	-1.919104	536.344781	89.765287	-21.225583	1.374014	40.145872	166.752856	0.000000	
-3.064097	-0.312421	546.505002	70.778386	-24.049838	2.926348	43.533805	128.730233	0.000000	
0.221199	0.561765	550.646909	63.933653	-25.045436	3.630679	44.673719	115.236401	0.000000	
-2.489243	0.090342	548.061957	69.402074	-24.298163	3.054826	43.802141	125.809755	0.000000	
-4.176046	-0.368674	545.298724	73.060885	-23.829009	2.674311	43.341294	133.208365	0.000000	
-8.080074	-0.988933	542.376611	81.242767	-22.497776	2.046225	41.528469	149.079827	0.000000	
-2.760657	-0.044832	547.368580	70.176810	-24.233639	2.874478	43.768566	127.399392	0.000000	
-4.529544	-0.463921	546.167072	73.793789	-23.736759	2.694724	43.138546	134.346976	0.000000	
1.224700	0.746426	552.888323	62.342032	-25.262793	3.527694	44.780712	111.868456	0.000000	
1.482377	0.612435	552.364547	63.204103	-25.468982	3.401666	45.171031	113.549609	0.000000	
2.150067	0.752151	553.573953	61.568125	-25.687884	3.582506	45.398383	110.330296	0.000000	
1.436877	0.790854	552.365245	62.816570	-25.500951	3.365653	45.233470	112.829752	0.000000	
1.436754	0.829562	553.232151	63.507433	-25.619866	3.439988	45.376316	113.896527	0.000000	
2.272224	1.015429	554.611145	61.785433	-25.717135	3.460236	45.352394	110.487630	0.000000	
1.508110	0.697509	553.918446	63.550546	-25.497559	3.101218	45.091089	113.845612	0.000000	
2.843191	1.151919	555.992244	60.753320	-26.084300	3.480622	45.840540	108.341038	0.000000	
-1.672214	0.002373	549.955109	69.362059	-24.961614	2.736561	44.771664	125.310087	0.000000	
-8.549964	-1.131969	542.371648	83.398144	-22.849905	1.456253	42.226706	153.069979	0.000000	
-7.087146	-0.896733	544.268579	80.686002	-23.132803	1.727870	42.445765	147.526309	0.000000	
-12.452499	-2.100213	537.541818	91.103843	-21.911914	0.696814	41.275571	168.888756	0.000000	
-2.440681	-0.097888	549.608976	71.817660	-24.587951	2.361684	44.198937	129.867658	0.000000	
0.704530	0.418668	553.574706	65.963206	-25.548335	2.886783	45.292749	118.303399	0.000000	
-3.425850	-0.287226	548.572626	74.315796	-24.486456	2.002541	44.199671	134.687786	0.000000	
-3.114381	-0.507595	549.089561	74.272600	-24.365557	2.093321	43.905310	134.504070	0.000000	
-9.368282	-1.719471	542.194721	85.939277	-22.777803	0.901628	42.192443	157.867745	0.000000	
-5.733443	-0.934960	546.852142	79.569267	-23.740452	1.607751	43.213795	144.787300	0.000000	
4.189118	0.713567	557.705617	60.755603	-26.624901	3.161901	46.531211	108.053892	0.000000	
3.081797	0.569644	557.019636	62.692889	-26.103992	3.018440	45.765853	111.680409	0.000000	
3.788017	0.576743	557.533628	61.530349	-26.379982	3.054550	46.146884	109.490841	0.000000	
1.347992	0.021998	554.774686	66.093363	-25.787463	2.566912	45.559035	118.320481	0.000000	
0.858169	-0.163116	554.603528	67.687116	-25.478717	2.478225	45.066197	121.249655	0.000000	
4.628129	0.318858	558.045516	60.367436	-26.806886	3.108105	46.784362	107.331686	0.000000	
2.407596	0.029697	556.671727	64.329228	-26.399284	2.677259	46.393364	114.744644	0.000000	
4.009181	0.088842	559.087974	61.315118	-26.532916	3.093122	46.267746	108.848177	0.000000	
-3.932551	-1.185483	550.298162	76.512996	-24.417047	1.577251	43.984141	138.347236	0.000000	
-2.605728	-0.999991	552.541797	74.749255	-24.696218	1.814639	44.172857	134.571281	0.000000	
-5.927192	-1.871862	548.921519	80.602904	-23.796923	1.253808	43.170596	146.217201	0.000000	
-5.706694	-1.691272	548.574307	80.172246	-23.828207	1.252948	43.232893	145.506740	0.000000	
-0.566150	-0.931662	554.260168	70.442190	-25.226505	2.102053	44.783747	126.373797	0.000000	
5.238382	-0.344830	560.979116	59.851380	-26.960694	3.042183	46.748729	105.912613	0.000000	
2.749083	-0.324662	558.395720	64.286760	-26.368845	2.501916	46.158873	114.347424	0.000000	
0.450185	-1.144344	555.463722	68.978142	-25.533978	2.193104	45.135885	123.483976	0.000000	
-2.119163	-1.344308	552.362116	73.196991	-25.034091	1.758391	44.749746	131.840066	0.000000	
3.862779	-0.358935	559.948571	62.262988	-26.589016	2.808644	46.310284	110.417286	0.000000	
2.094959	-0.771113	557.014617	65.145855	-26.244873	2.534316	46.118600	116.220252	0.000000	
1.330010	-0.915960	556.669817	67.601530	-25.901752	2.231002	45.608374	120.718709	0.000000	
-2.830894	-1.797156	552.536950	75.005384	-24.664542	1.616504	44.138790	135.116969	0.000000	
0.132580	-1.102869	554.771105	69.710407	-25.590628	1.976988	45.327455	124.954903	0.000000	
-7.749455	-2.731110	545.809741	84.906962	-23.294247	0.764961	42.687563	155.029419	0.000000	
-7.616895	-2.683903	545.462391	84.476082	-23.476931	0.745760	43.036527	154.333867	0.000000	
-0.129368	-1.328713	554.946101	70.399312	-25.467653	2.031440	45.117800	126.179468	0.000000	
2.268252	-1.212500	557.009738	65.317118	-26.182696	2.444433	45.989928	116.573208	0.000000	
4.482334	-0.748575	558.556133	61.658279	-26.921383	2.768403	46.960506	109.651085	0.000000	
1.413233	-1.312250	556.145552	67.729431	-25.930046	2.068089	45.694588	121.103233	0.000000	
-0.662444	-2.080170	552.346083	71.256714	-25.401452	1.738048	45.268183	128.405877	0.000000	
3.283288	-1.026725	557.176376	64.155354	-26.608940	2.515872	46.638729	114.434301	0.000000	
3.671891	-1.067714	557.863305	63.724997	-26.609695	2.373976	46.542600	113.525074	0.000000	
5.397757	-0.697421	558.719598	61.185446	-27.101837	2.607626	47.177584	108.767351	0.000000	
5.571166	-0.564506	558.891657	61.315327	-27.010097	2.590671	46.981262	108.952661	0.000000	
1.987687	-1.305323	554.929049	67.298263	-26.171353	2.064928	46.173245	120.592816	0.000000	
2.646720	-1.525040	555.442152	67.514327	-26.199243	2.084387	46.113504	120.891855	0.000000	
-7.945430	-3.265790	543.378405	87.317312	-23.068232	0.277193	42.486383	160.217800	0.000000	
-2.808776	-2.506344	548.542978	77.802876	-24.767178	1.017460	44.650742	141.279081	0.000000	
6.189080	-0.689704	558.712746	60.410206	-27.133227	2.589465	47.154886	107.380372	0.000000	
5.165076	-1.145634	557.330483	63.295126	-26.909206	2.319162	46.974928	112.870927	0.000000	
5.781534	-0.829793	557.846720	62.219508	-27.124596	2.355828	47.254833	110.805794	0.000000	
1.970792	-1.845681	554.056847	70.356599	-25.822969	1.760906	45.620095	126.358550	0.000000	
-0.386220	-2.266424	550.950112	74.962936	-25.259541	1.165226	45.099171	135.479216	0.000000	
3.604936	-1.341688	555.259486	67.300513	-26.499068	1.905229	46.572080	120.528294	0.000000	
3.957278	-1.339422	555.603071	66.956467	-26.651200	1.923708	46.781025	119.833798	0.000000	
2.490206	-1.708482	553.358041	70.228279	-26.274397	1.562147	46.441831	126.273344	0.000000	
-2.120752	-2.859967	547.492418	79.396949	-24.786107	0.694029	44.701996	144.499564	0.000000	
1.289751	-2.119496	551.457569	73.069467	-25.959760	1.254779	46.156183	131.905279	0.000000	
-1.637394	-2.638348	547.317018	79.743272	-25.055459	0.730170	45.159154	145.156179	0.000000	
-5.053073	-3.246105	543.351792	86.200259	-23.759878	0.080303	43.462751	158.167799	0.000000	
4.647018	-1.736236	554.725648	68.162722	-26.793059	1.618021	47.042229	122.239271	0.000000	
9.652053	-0.889961	559.372851	59.293985	-28.035618	2.394058	48.364171	105.277296	0.000000	
8.271776	-0.994646	558.513824	62.093786	-27.843358	2.071409	48.234199	110.463933	0.000000	
3.885076	-1.925100	553.169364	71.134450	-26.386308	1.348175	46.518766	127.976805	0.000000	
7.298256	-1.361373	556.787359	64.978460	-27.438056	1.943968	47.756376	116.026859	0.000000	
5.428687	-1.512364	554.025604	68.896626	-26.877084	1.456659	47.175163	123.696758	0.000000	
6.364785	-1.725470	555.232107	67.303086	-27.125560	1.708823	47.423862	120.577694	0.000000	
9.897999	-0.763677	559.887149	60.933623	-28.208363	2.128373	48.602911	108.095703	0.000000	
5.243521	-1.962177	554.195872	70.576482	-26.688028	1.296903	46.838038	126.735203	0.000000	
5.466193	-1.825954	553.502744	70.274869	-26.779097	1.331048	47.039638	126.336201	0.000000	
5.504530	-1.475535	553.849927	70.922901	-26.776253	1.297244	47.000639	127.391047	0.000000	
-3.754292	-3.383076	543.509550	88.616639	-24.349188	-0.221380	44.400096	162.581677	0.000000	
5.500530	-1.741573	553.154509	71.439234	-26.954327	1.170111	47.383047	128.512642	0.000000	
11.748295	-0.752045	560.219459	59.988137	-28.782715	2.218510	49.413524	106.342231	0.000000	
11.039136	-0.977923	558.836861	61.020469	-28.808460	2.036235	49.654995	108.477304	0.000000	
10.890621	-0.454572	559.876583	62.272612	-28.591593	1.843805	49.188856	110.458361	0.000000	
4.258841	-2.069551	552.295578	74.841886	-26.578265	1.009254	46.903199	134.908014	0.000000	
2.924703	-2.479259	549.702718	77.639344	-26.233090	0.628479	46.636395	140.679044	0.000000	
0.880902	-2.326272	547.810788	82.033108	-25.702000	0.269410	46.040035	149.172621	0.000000	
9.168700	-1.268172	556.767781	66.059622	-28.213015	1.605258	48.961477	117.963428	0.000000	
10.048259	-1.172148	557.280466	65.155750	-28.215060	1.624260	48.830823	116.222556	0.000000	
6.150383	-1.696315	553.147151	72.043867	-27.130585	1.009805	47.636415	129.602850	0.000000	
8.678314	-1.318858	555.558090	67.782203	-27.872378	1.478638	48.506184	121.327807	0.000000	
3.135215	-2.395174	549.699755	78.933365	-26.316931	0.504543	46.767684	143.025275	0.000000	
1.146063	-2.808763	546.420328	82.160354	-25.789959	0.193945	46.292940	149.836700	0.000000	
