NO_OF_FRAMES	7200
NO_OF_CAMERAS	12
NO_OF_MARKERS	8
FREQUENCY	240
NO_OF_ANALOG	0
ANALOG_FREQUENCY	0
DESCRIPTION	--
TIME_STAMP	2020-02-08, 11:29:21	226839.36048560
DATA_INCLUDED	3D
MARKER_NAMES	ASISL	ASISR	medialKnee	lateralKnee	medialMalleolus	lateralMalleolus	toe	sacral
ASISL X	ASISL Y	ASISL Z	ASISR X	ASISR Y	ASISR Z	medialKnee X	medialKnee Y	medialKnee Z	lateralKnee X	lateralKnee Y	lateralKnee Z	medialMalleolus X	medialMalleolus Y	medialMalleolus Z	lateralMalleolus X	lateralMalleolus Y	lateralMalleolus Z	toe X	toe Y	toe Z	sacral X	sacral Y	sacral Z	
0.000	0.000	0.000	111.859	608.655	548.075	445.807	579.154	421.229	402.918	478.677	431.887	162.294	575.213	82.410	214.055	518.133	106.578	415.355	456.888	56.070	-61.938	720.097	581.621
0.000	0.000	0.000	111.825	608.713	548.039	445.812	579.172	421.301	402.872	478.698	431.927	162.285	575.247	82.347	214.063	518.144	106.561	415.371	456.851	56.047	-61.877	720.175	581.655
0.000	0.000	0.000	111.817	608.740	548.048	445.766	579.177	421.283	402.857	478.721	431.946	162.307	575.260	82.352	214.081	518.098	106.577	415.373	456.863	56.039	-61.913	720.201	581.658
0.000	0.000	0.000	111.805	608.787	548.058	445.718	579.175	421.287	402.952	478.695	432.050	162.269	575.168	82.324	215.074	518.456	105.787	415.343	456.868	56.022	-61.937	720.244	581.671
0.000	0.000	0.000	111.782	608.838	548.056	445.743	579.170	421.307	402.934	478.692	432.080	162.386	575.284	82.342	215.039	518.404	105.829	415.347	456.853	56.039	-61.965	720.256	581.708
0.000	0.000	0.000	111.759	608.841	548.089	445.672	579.175	421.304	402.901	478.714	432.113	162.328	575.232	82.375	215.096	518.439	105.802	415.332	456.866	56.029	-61.955	720.297	581.725
0.000	0.000	0.000	111.743	608.833	548.111	445.632	579.226	421.353	402.851	478.740	432.125	162.344	575.220	82.344	215.110	518.477	105.789	415.395	456.870	56.074	-61.979	720.366	581.764
0.000	0.000	0.000	111.659	608.978	548.302	445.586	579.216	421.367	402.778	478.790	432.143	162.169	575.197	82.503	215.623	518.570	105.720	415.307	456.932	56.103	-62.320	720.428	582.057
0.000	0.000	0.000	111.608	609.038	547.962	445.547	579.352	421.222	402.744	478.758	432.098	162.464	575.744	82.464	215.945	518.800	105.695	415.473	457.066	55.955	-62.144	720.389	581.963
0.000	0.000	0.000	111.557	609.054	547.963	445.545	579.389	421.254	402.722	478.765	432.112	162.452	575.796	82.413	215.943	518.824	105.639	415.510	457.070	55.990	-62.158	720.396	581.979
0.000	0.000	0.000	111.566	609.071	547.989	445.483	579.378	421.247	402.657	478.783	432.135	162.058	575.327	82.421	214.953	517.958	106.001	415.416	456.766	55.955	-62.141	720.444	582.014
0.000	0.000	0.000	111.492	609.131	547.975	445.478	579.385	421.311	402.641	478.764	432.158	162.051	575.265	82.456	214.953	517.883	105.938	415.403	456.751	55.949	-62.168	720.465	581.994
0.000	0.000	0.000	111.452	609.196	547.957	445.455	579.378	421.333	402.605	478.720	432.182	162.005	575.243	82.375	214.878	517.849	105.936	415.432	456.752	55.965	-62.133	720.534	582.060
0.000	0.000	0.000	111.484	609.170	547.993	445.435	579.270	421.468	402.574	478.715	432.207	162.039	575.283	82.390	214.886	517.836	105.964	415.424	456.600	56.089	-62.129	720.549	582.074
0.000	0.000	0.000	111.410	609.219	547.968	445.458	579.255	421.600	402.528	478.695	432.239	162.028	575.265	82.427	214.906	517.804	105.978	415.388	456.603	56.104	-62.135	720.672	582.123
0.000	0.000	0.000	111.363	609.290	547.981	445.359	579.213	421.584	402.406	478.719	432.245	162.039	575.288	82.435	214.890	517.845	105.948	415.405	456.611	56.124	-62.156	720.739	582.110
0.000	0.000	0.000	111.358	609.252	548.019	445.362	579.189	421.666	402.377	478.665	432.274	162.009	575.336	82.411	214.806	517.837	105.995	415.395	456.622	56.102	-62.179	720.815	582.129
0.000	0.000	0.000	111.283	609.327	548.010	445.282	579.126	421.676	402.317	478.648	432.287	162.056	575.369	82.407	214.878	517.844	106.015	415.371	456.558	56.122	-62.194	720.896	582.144
0.000	0.000	0.000	111.261	609.324	548.011	445.260	579.052	421.736	402.201	478.587	432.292	162.079	575.378	82.396	214.813	517.836	105.968	415.420	456.595	56.130	-62.178	720.965	582.164
0.000	0.000	0.000	111.252	609.313	548.026	445.214	578.972	421.790	402.147	478.526	432.315	162.014	575.311	82.435	214.811	517.801	105.983	415.383	456.560	56.118	-62.176	720.980	582.183
0.000	0.000	0.000	111.231	609.254	548.048	445.125	578.869	421.880	402.076	478.421	432.358	162.015	575.285	82.401	214.804	517.775	105.963	415.397	456.538	56.134	-62.211	721.017	582.182
0.000	0.000	0.000	111.193	609.261	548.051	445.098	578.776	421.937	402.032	478.331	432.376	162.004	575.296	82.407	214.835	517.739	105.969	415.374	456.533	56.109	-62.202	721.043	582.154
0.000	0.000	0.000	111.182	609.201	548.072	445.049	578.699	421.980	401.997	478.229	432.410	162.007	575.298	82.470	214.777	517.712	106.007	415.392	456.513	56.125	-62.215	721.100	582.179
0.000	0.000	0.000	111.139	609.261	548.071	445.019	578.628	422.042	401.873	478.200	432.404	161.993	575.304	82.414	214.801	517.782	105.991	415.389	456.494	56.158	-62.192	721.178	582.189
0.000	0.000	0.000	111.081	609.277	548.061	444.992	578.507	422.069	401.802	478.124	432.441	162.028	575.331	82.449	214.763	517.749	106.001	415.369	456.525	56.133	-62.226	721.188	582.193
0.000	0.000	0.000	111.075	609.310	548.068	444.982	578.460	422.198	401.746	478.073	432.434	162.051	575.337	82.461	214.747	517.754	105.968	415.345	456.521	56.097	-62.222	721.263	582.198
0.000	0.000	0.000	111.040	609.302	548.059	444.934	578.349	422.187	401.698	477.985	432.492	162.055	575.370	82.469	214.752	517.722	106.012	415.355	456.482	56.080	-62.252	721.265	582.227
0.000	0.000	0.000	111.024	609.321	548.039	444.975	578.265	422.255	401.657	477.898	432.488	162.047	575.331	82.480	214.741	517.683	105.998	415.368	456.480	56.092	-62.232	721.294	582.187
0.000	0.000	0.000	111.007	609.340	548.050	444.948	578.192	422.333	401.593	477.805	432.508	162.037	575.284	82.448	214.706	517.617	105.979	415.353	456.444	56.073	-62.256	721.318	582.190
0.000	0.000	0.000	111.025	609.297	548.032	444.868	578.096	422.298	401.568	477.689	432.561	162.059	575.303	82.457	214.717	517.631	105.948	415.329	456.430	56.076	-62.281	721.312	582.205
0.000	0.000	0.000	111.044	609.293	548.046	444.796	577.994	422.270	401.494	477.636	432.557	161.984	575.304	82.394	214.734	517.562	105.954	415.317	456.421	56.050	-62.270	721.354	582.218
0.000	0.000	0.000	111.051	609.270	548.053	444.789	577.964	422.362	401.456	477.606	432.569	161.977	575.258	82.417	214.660	517.588	106.004	415.308	456.399	56.068	-62.244	721.382	582.230
0.000	0.000	0.000	111.000	609.338	548.038	444.758	577.905	422.288	401.359	477.600	432.601	161.983	575.305	82.440	214.732	517.572	105.953	415.309	456.392	56.038	-62.224	721.462	582.252
0.000	0.000	0.000	111.016	609.372	548.044	444.733	577.827	422.331	401.321	477.541	432.601	161.980	575.311	82.422	214.667	517.590	105.979	415.306	456.390	56.035	-62.275	721.516	582.248
0.000	0.000	0.000	110.986	609.359	548.026	444.736	577.799	422.357	401.311	477.499	432.625	161.956	575.268	82.490	214.618	517.585	106.013	415.312	456.359	56.017	-62.253	721.515	582.237
0.000	0.000	0.000	111.049	609.328	548.053	444.725	577.762	422.360	401.291	477.453	432.647	162.002	575.261	82.494	214.669	517.528	105.955	415.321	456.341	56.021	-62.235	721.561	582.209
0.000	0.000	0.000	110.978	609.388	548.024	444.733	577.754	422.385	401.317	477.410	432.677	161.979	575.212	82.476	214.651	517.498	105.970	415.315	456.303	55.985	-62.232	721.549	582.235
0.000	0.000	0.000	110.960	609.417	548.009	444.761	577.798	422.436	401.289	477.419	432.700	162.004	575.173	82.521	214.635	517.469	105.973	415.328	456.317	55.963	-62.222	721.556	582.204
0.000	0.000	0.000	110.986	609.405	548.009	444.766	577.796	422.448	401.301	477.423	432.706	161.943	575.153	82.457	214.682	517.484	105.975	415.329	456.313	55.975	-62.217	721.612	582.195
0.000	0.000	0.000	111.022	609.357	548.034	444.729	577.772	422.344	401.256	477.456	432.710	161.906	575.178	82.473	214.612	517.475	105.976	415.316	456.300	55.985	-62.186	721.642	582.181
0.000	0.000	0.000	111.020	609.405	547.994	444.711	577.797	422.376	401.247	477.495	432.733	161.968	575.201	82.570	214.628	517.501	105.987	415.326	456.290	55.990	-62.186	721.717	582.163
0.000	0.000	0.000	111.042	609.418	547.992	444.660	577.820	422.349	401.269	477.505	432.750	161.987	575.209	82.542	214.641	517.492	106.008	415.320	456.325	55.993	-62.192	721.719	582.137
0.000	0.000	0.000	110.992	609.432	547.967	444.663	577.856	422.338	401.256	477.576	432.725	161.993	575.253	82.548	214.658	517.538	105.970	415.327	456.314	56.010	-62.130	721.812	582.056
0.000	0.000	0.000	111.023	609.368	547.980	444.661	577.874	422.377	401.255	477.605	432.722	162.029	575.277	82.533	214.643	517.540	105.971	415.334	456.319	55.996	-62.169	721.820	582.035
0.000	0.000	0.000	111.013	609.384	547.980	444.669	577.920	422.341	401.302	477.591	432.731	161.976	575.203	82.520	214.674	517.549	105.984	415.337	456.292	55.977	-62.127	721.839	581.991
0.000	0.000	0.000	111.053	609.348	547.923	444.689	577.944	422.348	401.335	477.587	432.767	162.008	575.225	82.536	214.696	517.506	105.974	415.321	456.289	55.956	-62.120	721.855	581.966
0.000	0.000	0.000	111.059	609.375	547.919	444.729	578.014	422.396	401.349	477.676	432.739	161.995	575.194	82.547	214.629	517.530	106.009	415.359	456.291	55.988	-62.049	721.942	581.885
0.000	0.000	0.000	111.033	609.387	547.898	444.795	578.067	422.380	401.374	477.680	432.728	162.015	575.244	82.545	214.717	517.546	105.974	415.324	456.321	55.968	-62.089	721.943	581.835
0.000	0.000	0.000	111.031	609.417	547.827	444.833	578.114	422.376	401.350	477.789	432.709	161.959	575.229	82.576	214.713	517.565	106.040	415.348	456.313	55.998	-62.068	721.986	581.790
0.000	0.000	0.000	111.026	609.406	547.822	444.821	578.121	422.335	401.399	477.843	432.693	161.993	575.306	82.536	214.660	517.574	106.030	415.333	456.348	55.978	-62.044	722.014	581.762
0.000	0.000	0.000	111.010	609.505	547.758	444.870	578.165	422.308	401.451	477.862	432.682	162.044	575.297	82.525	214.698	517.629	106.062	415.343	456.362	55.958	-62.066	722.040	581.714
0.000	0.000	0.000	111.096	609.405	547.775	444.894	578.201	422.293	401.471	477.917	432.660	162.079	575.287	82.493	214.710	517.638	106.054	415.390	456.330	55.976	-62.079	721.998	581.604
0.000	0.000	0.000	111.100	609.417	547.753	444.929	578.255	422.267	401.524	477.906	432.642	162.063	575.273	82.521	214.783	517.604	106.005	415.371	456.339	55.950	-62.080	721.980	581.569
0.000	0.000	0.000	111.116	609.437	547.715	444.976	578.291	422.273	401.575	477.950	432.628	162.108	575.266	82.489	214.708	517.584	106.031	415.371	456.322	55.959	-62.089	721.947	581.511
0.000	0.000	0.000	111.128	609.479	547.658	444.976	578.310	422.175	401.624	477.936	432.623	162.093	575.280	82.477	214.760	517.581	106.010	415.371	456.314	55.941	-62.079	721.930	581.451
0.000	0.000	0.000	111.183	609.438	547.668	445.019	578.369	422.160	401.677	477.974	432.600	162.121	575.297	82.476	214.772	517.581	106.012	415.390	456.342	55.954	-62.116	721.906	581.385
0.000	0.000	0.000	111.226	609.420	547.655	445.043	578.383	422.118	401.703	478.052	432.563	162.124	575.327	82.488	214.819	517.657	106.001	415.347	456.357	55.949	-62.092	721.966	581.391
0.000	0.000	0.000	111.231	609.516	547.564	445.096	578.416	422.089	401.695	478.119	432.529	162.080	575.317	82.506	214.754	517.672	105.994	415.369	456.369	55.951	-62.149	721.950	581.329
0.000	0.000	0.000	111.219	609.551	547.560	445.114	578.440	422.051	401.714	478.170	432.519	162.072	575.331	82.434	214.709	517.662	106.035	415.380	456.384	55.950	-62.100	721.955	581.306
0.000	0.000	0.000	111.286	609.582	547.460	445.184	578.472	421.984	401.780	478.176	432.488	162.085	575.374	82.480	214.776	517.693	106.000	415.398	456.373	55.972	-62.042	721.959	581.262
0.000	0.000	0.000	111.330	609.654	547.400	445.192	578.540	421.936	401.852	478.186	432.459	162.066	575.332	82.468	214.775	517.659	106.009	415.372	456.413	55.944	-62.092	721.926	581.252
0.000	0.000	0.000	111.362	609.676	547.383	445.258	578.565	421.899	401.865	478.192	432.438	162.099	575.345	82.470	214.795	517.642	106.012	415.382	456.371	55.953	-62.126	721.901	581.219
0.000	0.000	0.000	111.426	609.635	547.358	445.297	578.587	421.974	401.950	478.199	432.444	162.076	575.331	82.463	214.797	517.662	106.009	415.386	456.388	55.958	-62.039	721.877	581.180
0.000	0.000	0.000	111.430	609.644	547.273	445.287	578.609	421.852	401.977	478.190	432.432	162.129	575.369	82.469	214.804	517.687	106.022	415.404	456.395	55.973	-62.044	721.921	581.165
0.000	0.000	0.000	111.402	609.667	547.239	445.277	578.605	421.868	401.987	478.255	432.423	162.052	575.304	82.483	214.810	517.706	106.019	415.374	456.428	55.991	-62.050	721.935	581.139
0.000	0.000	0.000	111.463	609.668	547.189	445.321	578.659	421.818	401.953	478.287	432.408	162.137	575.423	82.463	214.808	517.757	105.987	415.385	456.428	56.004	-62.055	721.952	581.111
0.000	0.000	0.000	111.506	609.646	547.119	445.323	578.640	421.801	401.957	478.341	432.365	162.054	575.406	82.490	214.833	517.781	106.028	415.357	456.459	56.014	-62.006	721.977	581.055
0.000	0.000	0.000	111.553	609.570	547.136	445.350	578.656	421.768	401.981	478.343	432.361	162.061	575.425	82.428	214.839	517.788	105.981	415.371	456.449	55.996	-62.031	721.953	581.074
0.000	0.000	0.000	111.542	609.562	547.130	445.360	578.680	421.745	402.021	478.331	432.356	162.077	575.429	82.454	214.824	517.733	106.024	415.361	456.420	56.009	-62.044	721.919	581.054
0.000	0.000	0.000	111.538	609.582	547.053	445.373	578.688	421.744	402.049	478.308	432.336	162.072	575.340	82.467	214.869	517.767	106.003	415.376	456.432	56.011	-61.981	721.884	581.020
0.000	0.000	0.000	111.536	609.550	547.030	445.403	578.708	421.765	402.080	478.301	432.332	162.085	575.347	82.489	214.861	517.733	106.018	415.396	456.425	56.012	-61.993	721.849	580.996
0.000	0.000	0.000	111.530	609.580	547.002	445.398	578.726	421.728	402.089	478.301	432.345	162.111	575.352	82.486	214.787	517.722	106.016	415.400	456.453	56.037	-61.982	721.867	580.977
0.000	0.000	0.000	111.512	609.610	546.991	445.428	578.749	421.737	402.080	478.365	432.331	162.061	575.363	82.485	214.884	517.763	106.002	415.365	456.472	56.028	-61.973	721.847	580.946
0.000	0.000	0.000	111.494	609.584	546.984	445.441	578.752	421.729	402.096	478.397	432.296	162.077	575.410	82.458	214.828	517.783	106.021	415.384	456.497	56.031	-62.005	721.874	580.925
0.000	0.000	0.000	111.488	609.562	546.964	445.465	578.785	421.724	402.090	478.426	432.290	162.052	575.411	82.454	214.814	517.823	106.067	415.390	456.476	56.100	-61.978	721.915	580.918
0.000	0.000	0.000	111.472	609.554	546.958	445.492	578.773	421.710	402.082	478.413	432.268	162.100	575.433	82.460	214.806	517.795	106.030	415.396	456.479	56.083	-62.015	721.875	580.880
0.000	0.000	0.000	111.546	609.494	546.989	445.484	578.765	421.705	402.101	478.401	432.284	162.065	575.387	82.501	214.759	517.765	106.068	415.400	456.467	56.085	-62.015	721.856	580.872
0.000	0.000	0.000	111.523	609.451	547.023	445.456	578.748	421.680	402.120	478.330	432.287	162.069	575.357	82.474	214.803	517.730	106.062	415.365	456.443	56.024	-62.028	721.816	580.823
0.000	0.000	0.000	111.464	609.456	547.002	445.489	578.728	421.696	402.161	478.305	432.300	162.073	575.347	82.423	214.840	517.687	106.018	415.390	456.417	55.989	-61.954	721.823	580.856
0.000	0.000	0.000	111.550	609.358	547.054	445.463	578.732	421.670	402.155	478.291	432.303	162.096	575.322	82.438	214.842	517.675	106.021	415.375	456.396	56.002	-62.025	721.796	580.838
0.000	0.000	0.000	111.544	609.385	547.050	445.475	578.744	421.710	402.110	478.290	432.317	162.117	575.390	82.441	214.889	517.746	106.021	415.380	456.402	55.996	-62.003	721.846	580.811
0.000	0.000	0.000	111.475	609.416	547.022	445.455	578.700	421.707	402.094	478.335	432.312	162.117	575.433	82.486	214.819	517.807	106.008	415.397	456.430	55.991	-62.056	721.885	580.833
0.000	0.000	0.000	111.474	609.380	547.081	445.460	578.704	421.712	402.071	478.342	432.297	162.098	575.433	82.460	214.826	517.794	106.063	415.373	456.453	55.984	-62.011	721.922	580.856
0.000	0.000	0.000	111.474	609.411	547.105	445.486	578.678	421.751	402.071	478.342	432.306	162.078	575.413	82.491	214.812	517.791	106.015	415.415	456.468	55.990	-62.045	721.906	580.874
0.000	0.000	0.000	111.471	609.334	547.140	445.464	578.636	421.763	402.051	478.308	432.286	162.124	575.424	82.507	214.837	517.782	106.044	415.381	456.443	55.977	-62.059	721.903	580.881
0.000	0.000	0.000	111.511	609.325	547.175	445.461	578.598	421.782	402.038	478.256	432.306	162.060	575.364	82.439	214.840	517.713	105.989	415.415	456.400	56.002	-62.025	721.860	580.898
0.000	0.000	0.000	111.447	609.296	547.195	445.433	578.576	421.782	402.038	478.166	432.308	162.114	575.342	82.488	214.840	517.694	105.995	415.425	456.394	55.977	-62.061	721.824	580.923
0.000	0.000	0.000	111.439	609.232	547.228	445.400	578.531	421.793	402.019	478.134	432.284	162.127	575.339	82.467	214.853	517.697	105.979	415.418	456.395	55.974	-62.038	721.816	580.964
0.000	0.000	0.000	111.467	609.153	547.268	445.361	578.514	421.809	401.989	478.099	432.332	162.092	575.357	82.466	214.887	517.724	105.983	415.391	456.388	55.984	-62.114	721.847	580.995
0.000	0.000	0.000	111.398	609.105	547.322	445.345	578.464	421.853	401.910	478.108	432.315	162.088	575.398	82.459	214.892	517.745	105.967	415.377	456.403	55.985	-62.115	721.862	581.045
0.000	0.000	0.000	111.372	609.101	547.361	445.320	578.442	421.893	401.845	478.096	432.337	162.084	575.445	82.444	214.821	517.737	106.005	415.348	456.418	56.010	-62.180	721.853	581.095
0.000	0.000	0.000	111.369	609.039	547.441	445.275	578.379	421.919	401.804	478.074	432.338	162.125	575.480	82.461	214.785	517.755	105.983	415.341	456.443	56.014	-62.158	721.875	581.147
0.000	0.000	0.000	111.259	609.052	547.516	445.207	578.333	421.976	401.805	478.038	432.378	162.095	575.454	82.449	214.821	517.710	106.002	415.382	456.414	56.021	-62.196	721.867	581.143
0.000	0.000	0.000	111.322	608.914	547.614	445.133	578.279	422.051	401.728	477.963	432.385	162.096	575.386	82.437	214.854	517.694	105.952	415.375	456.398	56.019	-62.180	721.822	581.227
0.000	0.000	0.000	111.288	608.882	547.641	445.096	578.267	422.108	401.681	477.902	432.386	162.081	575.330	82.394	214.836	517.618	105.968	415.388	456.366	56.008	-62.207	721.781	581.340
0.000	0.000	0.000	111.183	608.879	547.692	445.043	578.207	422.085	401.616	477.858	432.468	162.084	575.332	82.396	214.840	517.648	105.975	415.374	456.387	56.045	-62.228	721.757	581.378
0.000	0.000	0.000	111.158	608.767	547.754	445.007	578.147	422.191	401.564	477.826	432.490	162.120	575.394	82.417	214.791	517.660	105.967	415.398	456.368	56.051	-62.248	721.799	581.508
0.000	0.000	0.000	111.119	608.754	547.787	444.934	578.133	422.231	401.466	477.824	432.510	162.060	575.382	82.436	214.793	517.678	105.956	415.351	456.378	56.047	-62.263	721.795	581.582
0.000	0.000	0.000	111.050	608.708	547.861	444.858	578.089	422.292	401.378	477.798	432.555	162.040	575.370	82.450	214.760	517.676	105.957	415.335	456.391	56.036	-62.301	721.809	581.718
0.000	0.000	0.000	110.999	608.641	547.913	444.812	578.070	422.330	401.319	477.794	432.596	162.055	575.410	82.402	214.702	517.653	105.961	415.344	456.378	56.064	-62.323	721.843	581.862
0.000	0.000	0.000	110.927	608.623	547.931	444.787	578.069	422.439	401.225	477.761	432.620	162.051	575.414	82.435	214.734	517.623	105.957	415.367	456.369	56.100	-62.413	721.724	582.016
0.000	0.000	0.000	110.876	608.545	548.020	444.636	577.975	422.363	401.179	477.668	432.663	162.072	575.355	82.443	214.745	517.615	105.936	415.343	456.358	56.097	-62.467	721.687	582.114
0.000	0.000	0.000	110.868	608.489	548.104	444.587	577.964	422.471	401.142	477.627	432.715	162.045	575.302	82.427	214.661	517.533	105.996	415.333	456.331	56.070	-62.479	721.663	582.245
0.000	0.000	0.000	110.787	608.519	548.153	444.468	577.902	422.457	401.049	477.574	432.721	162.046	575.317	82.419	214.706	517.553	105.977	415.325	456.338	56.120	-62.527	721.638	582.371
0.000	0.000	0.000	110.749	608.434	548.238	444.430	577.896	422.536	400.961	477.558	432.752	162.002	575.326	82.360	214.696	517.512	105.976	415.267	456.268	56.147	-62.572	721.611	582.485
0.000	0.000	0.000	110.731	608.373	548.326	444.362	577.846	422.551	400.880	477.534	432.785	162.003	575.368	82.420	214.648	517.580	105.959	415.306	456.367	56.243	-62.607	721.648	582.620
0.000	0.000	0.000	110.591	608.429	548.414	444.326	577.833	422.646	400.754	477.543	432.822	161.995	575.353	82.347	214.622	517.607	105.946	415.298	456.390	56.249	-62.622	721.689	582.758
0.000	0.000	0.000	110.557	608.374	548.496	444.255	577.781	422.723	400.659	477.501	432.843	161.959	575.379	82.363	214.639	517.593	105.962	415.285	456.420	56.258	-62.666	721.707	582.896
0.000	0.000	0.000	110.499	608.330	548.588	444.139	577.732	422.755	400.573	477.489	432.865	161.969	575.333	82.371	214.605	517.594	105.972	415.285	456.390	56.281	-62.705	721.695	583.051
0.000	0.000	0.000	110.477	608.332	548.671	444.041	577.673	422.816	400.523	477.418	432.931	161.973	575.355	82.383	214.582	517.543	105.948	415.259	456.364	56.295	-62.743	721.629	583.136
0.000	0.000	0.000	110.354	608.295	548.753	443.963	577.627	422.855	400.433	477.361	432.977	161.958	575.330	82.382	214.588	517.499	105.939	415.260	456.325	56.331	-62.784	721.619	583.245
0.000	0.000	0.000	110.421	608.172	548.985	443.853	577.562	422.870	400.394	477.272	433.048	161.921	575.235	82.377	214.569	517.435	105.954	415.282	456.316	56.374	-62.817	721.574	583.374
0.000	0.000	0.000	110.265	608.205	549.084	443.831	577.550	422.938	400.268	477.276	433.069	161.923	575.234	82.380	214.589	517.436	105.926	415.296	456.308	56.390	-62.763	721.555	583.584
0.000	0.000	0.000	110.323	608.087	549.242	443.752	577.512	422.971	400.184	477.255	433.117	161.930	575.272	82.369	214.526	517.452	105.906	415.275	456.325	56.387	-62.819	721.584	583.705
0.000	0.000	0.000	110.212	608.109	549.355	443.707	577.480	423.008	400.089	477.258	433.164	161.914	575.303	82.353	214.502	517.486	105.973	415.280	456.337	56.419	-62.854	721.606	583.837
0.000	0.000	0.000	110.153	608.116	549.451	443.657	577.457	423.046	400.006	477.258	433.188	161.868	575.343	82.361	214.495	517.532	105.934	415.194	456.317	56.399	-62.895	721.602	583.964
0.000	0.000	0.000	110.175	608.039	549.602	443.607	577.447	423.086	399.914	477.265	433.191	161.873	575.310	82.326	214.516	517.515	105.927	415.228	456.359	56.418	-62.931	721.561	584.121
0.000	0.000	0.000	110.151	608.051	549.700	443.574	577.420	423.152	399.894	477.187	433.235	161.915	575.291	82.321	214.499	517.441	105.911	415.223	456.366	56.439	-63.027	721.440	584.303
0.000	0.000	0.000	110.149	607.967	549.849	443.514	577.410	423.137	399.844	477.178	433.268	161.915	575.271	82.318	214.459	517.399	105.944	415.254	456.327	56.429	-63.098	721.375	584.399
0.000	0.000	0.000	110.081	608.013	549.891	443.464	577.384	423.151	399.803	477.125	433.299	161.909	575.250	82.314	214.480	517.404	105.913	415.256	456.322	56.438	-63.083	721.323	584.528
0.000	0.000	0.000	110.101	607.884	550.079	443.415	577.412	423.181	399.726	477.179	433.292	161.910	575.262	82.302	214.538	517.412	105.881	415.242	456.311	56.436	-63.115	721.303	584.646
0.000	0.000	0.000	110.014	607.908	550.161	443.354	577.412	423.177	399.688	477.198	433.331	161.893	575.283	82.311	214.494	517.426	105.944	415.229	456.331	56.469	-63.069	721.308	584.832
0.000	0.000	0.000	109.967	607.900	550.214	443.306	577.433	423.221	399.634	477.268	433.312	161.905	575.312	82.293	214.491	517.501	105.868	415.249	456.383	56.458	-63.082	721.305	584.922
0.000	0.000	0.000	109.921	607.867	550.273	443.244	577.468	423.216	399.624	477.296	433.371	161.865	575.290	82.324	214.532	517.503	105.907	415.209	456.398	56.481	-63.116	721.332	585.039
0.000	0.000	0.000	109.868	607.898	550.318	443.208	577.510	423.259	399.599	477.342	433.388	161.886	575.342	82.279	214.504	517.461	105.904	415.229	456.383	56.468	-63.126	721.302	585.142
0.000	0.000	0.000	109.862	607.820	550.416	443.154	577.530	423.294	399.606	477.378	433.425	161.879	575.309	82.312	214.479	517.497	105.881	415.220	456.389	56.492	-63.163	721.241	585.286
0.000	0.000	0.000	109.776	607.870	550.441	443.160	577.612	423.330	399.572	477.399	433.455	161.851	575.279	82.292	214.472	517.470	105.907	415.251	456.385	56.516	-63.160	721.190	585.419
0.000	0.000	0.000	109.771	607.854	550.529	443.108	577.678	423.346	399.573	477.443	433.473	161.858	575.275	82.307	214.464	517.445	105.905	415.238	456.372	56.542	-63.154	721.164	585.521
0.000	0.000	0.000	109.692	607.859	550.585	443.044	577.747	423.377	399.545	477.494	433.495	161.846	575.255	82.297	214.424	517.427	105.943	415.248	456.360	56.524	-63.143	721.149	585.669
0.000	0.000	0.000	109.663	607.807	550.638	442.994	577.813	423.420	399.487	477.560	433.516	161.878	575.231	82.308	214.441	517.423	105.937	415.252	456.391	56.557	-63.183	721.140	585.824
0.000	0.000	0.000	109.612	607.772	550.725	442.930	577.878	423.427	399.480	477.648	433.555	161.850	575.296	82.268	214.466	517.496	105.943	415.256	456.399	56.588	-63.177	721.134	585.951
0.000	0.000	0.000	109.557	607.757	550.784	442.902	577.962	423.457	399.422	477.775	433.545	161.872	575.274	82.279	214.402	517.513	105.954	415.228	456.439	56.552	-63.162	721.145	586.078
0.000	0.000	0.000	109.560	607.692	550.857	442.854	578.009	423.514	399.422	477.827	433.585	161.836	575.324	82.307	214.458	517.513	105.926	415.248	456.409	56.577	-63.197	721.083	586.193
0.000	0.000	0.000	109.516	607.653	550.931	442.801	578.090	423.498	399.409	477.869	433.595	161.811	575.281	82.287	214.389	517.508	105.929	415.236	456.444	56.588	-63.213	721.037	586.320
0.000	0.000	0.000	109.459	607.655	550.956	442.793	578.158	423.551	399.429	477.911	433.629	161.885	575.260	82.281	214.487	517.463	105.878	415.268	456.423	56.578	-63.210	721.001	586.460
0.000	0.000	0.000	109.429	607.541	551.080	442.764	578.218	423.567	399.436	477.904	433.660	161.849	575.257	82.310	214.470	517.440	105.936	415.277	456.417	56.600	-63.238	720.915	586.552
0.000	0.000	0.000	109.515	607.460	551.234	442.737	578.275	423.582	399.453	477.953	433.682	161.869	575.257	82.276	214.473	517.439	105.942	415.258	456.428	56.582	-63.212	720.899	586.677
0.000	0.000	0.000	109.403	607.498	551.229	442.706	578.337	423.557	399.451	478.010	433.682	161.811	575.261	82.284	214.400	517.458	105.929	415.271	456.429	56.631	-63.217	720.866	586.781
0.000	0.000	0.000	109.484	607.408	551.417	442.684	578.391	423.586	399.424	478.080	433.684	161.845	575.300	82.275	214.404	517.483	105.952	415.267	456.467	56.635	-63.260	720.831	586.880
0.000	0.000	0.000	109.532	607.326	551.452	442.694	578.408	423.587	399.423	478.090	433.719	161.814	575.298	82.302	214.451	517.501	105.907	415.242	456.500	56.612	-63.303	720.805	586.981
0.000	0.000	0.000	109.472	607.318	551.533	442.717	578.428	423.618	399.409	478.140	433.680	161.796	575.317	82.260	214.400	517.532	105.937	415.252	456.514	56.645	-63.302	720.823	587.071
0.000	0.000	0.000	109.514	607.266	551.588	442.702	578.416	423.573	399.422	478.104	433.680	161.828	575.301	82.268	214.457	517.549	105.901	415.254	456.464	56.644	-63.260	720.802	587.175
0.000	0.000	0.000	109.416	607.327	551.564	442.730	578.406	423.584	399.469	478.097	433.691	161.808	575.281	82.284	214.408	517.448	105.949	415.221	456.497	56.635	-63.235	720.761	587.255
0.000	0.000	0.000	109.509	607.225	551.625	442.729	578.403	423.559	399.490	478.056	433.690	161.806	575.256	82.272	214.402	517.486	105.925	415.231	456.460	56.646	-63.224	720.717	587.262
0.000	0.000	0.000	109.471	607.282	551.633	442.769	578.379	423.573	399.481	478.049	433.659	161.801	575.218	82.266	214.481	517.495	105.904	415.256	456.453	56.657	-63.221	720.655	587.285
0.000	0.000	0.000	109.531	607.228	551.682	442.757	578.346	423.544	399.519	478.016	433.654	161.835	575.235	82.287	214.461	517.474	105.945	415.254	456.458	56.681	-63.227	720.643	587.342
0.000	0.000	0.000	109.530	607.206	551.672	442.785	578.333	423.536	399.510	478.024	433.636	161.827	575.300	82.286	214.416	517.495	105.949	415.234	456.482	56.662	-63.176	720.627	587.330
0.000	0.000	0.000	109.535	607.214	551.704	442.804	578.282	423.515	399.538	478.025	433.628	161.805	575.243	82.281	214.460	517.558	105.891	415.250	456.496	56.692	-63.179	720.562	587.348
0.000	0.000	0.000	109.536	607.191	551.711	442.810	578.275	423.492	399.554	477.996	433.629	161.787	575.296	82.278	214.405	517.540	105.932	415.251	456.511	56.701	-63.155	720.542	587.368
0.000	0.000	0.000	109.561	607.186	551.722	442.846	578.260	423.502	399.555	478.005	433.568	161.805	575.350	82.249	214.414	517.556	105.930	415.252	456.534	56.704	-63.158	720.499	587.383
0.000	0.000	0.000	109.565	607.156	551.743	442.875	578.240	423.525	399.584	477.941	433.575	161.757	575.301	82.272	214.380	517.498	105.922	415.217	456.522	56.707	-63.159	720.423	587.380
0.000	0.000	0.000	109.530	607.155	551.728	442.897	578.214	423.504	399.609	477.889	433.554	161.830	575.285	82.266	214.354	517.440	105.989	415.253	456.506	56.724	-63.178	720.346	587.389
0.000	0.000	0.000	109.527	607.106	551.738	442.922	578.183	423.517	399.608	477.842	433.546	161.821	575.270	82.258	214.464	517.501	105.940	415.265	456.482	56.701	-63.145	720.264	587.380
0.000	0.000	0.000	109.552	607.048	551.769	442.928	578.169	423.468	399.648	477.818	433.547	161.820	575.239	82.285	214.465	517.498	105.854	415.237	456.491	56.697	-63.144	720.229	587.357
0.000	0.000	0.000	109.579	606.950	551.839	442.922	578.129	423.451	399.634	477.812	433.517	161.833	575.289	82.286	214.460	517.447	105.950	415.216	456.513	56.691	-63.139	720.208	587.352
0.000	0.000	0.000	109.541	606.906	551.845	442.932	578.098	423.446	399.619	477.826	433.501	161.810	575.311	82.287	214.481	517.521	105.900	415.243	456.482	56.697	-63.178	720.209	587.298
0.000	0.000	0.000	109.550	606.864	551.866	442.955	578.058	423.437	399.594	477.823	433.484	161.824	575.355	82.241	214.454	517.568	105.881	415.255	456.451	56.701	-63.189	720.222	587.275
0.000	0.000	0.000	109.594	606.740	551.898	442.961	578.033	423.443	399.609	477.774	433.466	161.826	575.328	82.276	214.490	517.527	105.915	415.227	456.471	56.681	-63.176	720.178	587.298
0.000	0.000	0.000	109.568	606.750	551.918	442.940	577.986	423.440	399.658	477.728	433.450	161.868	575.332	82.252	214.477	517.502	105.897	415.230	456.458	56.666	-63.133	720.162	587.320
0.000	0.000	0.000	109.652	606.615	551.963	442.954	577.939	423.425	399.654	477.682	433.465	161.833	575.252	82.263	214.486	517.456	105.876	415.256	456.437	56.661	-63.149	720.090	587.300
0.000	0.000	0.000	109.629	606.607	551.971	442.964	577.925	423.425	399.639	477.614	433.474	161.864	575.289	82.277	214.464	517.434	105.914	415.268	456.403	56.665	-63.110	720.085	587.338
0.000	0.000	0.000	109.667	606.504	551.973	442.991	577.899	423.464	399.674	477.607	433.451	161.866	575.242	82.256	214.538	517.467	105.861	415.241	456.402	56.646	-63.099	720.091	587.382
0.000	0.000	0.000	109.680	606.491	551.962	442.985	577.897	423.444	399.628	477.588	433.481	161.871	575.303	82.233	214.534	517.481	105.857	415.239	456.398	56.650	-63.096	720.102	587.405
0.000	0.000	0.000	109.677	606.449	551.958	442.951	577.859	423.423	399.601	477.584	433.472	161.869	575.318	82.274	214.468	517.490	105.898	415.230	456.421	56.636	-63.079	720.113	587.436
0.000	0.000	0.000	109.690	606.433	551.939	442.939	577.847	423.426	399.578	477.593	433.483	161.871	575.306	82.272	214.482	517.499	105.925	415.223	456.442	56.626	-63.063	720.128	587.468
0.000	0.000	0.000	109.690	606.405	551.936	442.961	577.831	423.442	399.556	477.583	433.491	161.847	575.283	82.256	214.514	517.494	105.852	415.223	456.423	56.608	-63.016	720.133	587.544
0.000	0.000	0.000	109.722	606.345	551.945	442.925	577.826	423.457	399.543	477.567	433.499	161.892	575.346	82.221	214.495	517.482	105.831	415.235	456.420	56.639	-62.964	720.112	587.597
0.000	0.000	0.000	109.781	606.253	551.975	442.872	577.822	423.431	399.549	477.542	433.499	161.876	575.259	82.249	214.458	517.441	105.858	415.254	456.383	56.641	-62.949	720.057	587.649
0.000	0.000	0.000	109.815	606.215	551.999	442.850	577.844	423.441	399.560	477.497	433.520	161.831	575.208	82.245	214.474	517.405	105.844	415.213	456.399	56.599	-62.908	720.023	587.681
0.000	0.000	0.000	109.782	606.214	551.977	442.830	577.852	423.472	399.501	477.547	433.526	161.868	575.261	82.240	214.491	517.391	105.836	415.211	456.299	56.658	-62.853	719.990	587.754
0.000	0.000	0.000	109.798	606.188	552.020	442.769	577.853	423.467	399.508	477.543	433.540	161.841	575.231	82.235	214.413	517.421	105.856	415.218	456.394	56.670	-62.859	719.972	587.755
0.000	0.000	0.000	109.712	606.198	552.050	442.737	577.899	423.490	399.433	477.602	433.563	161.852	575.268	82.262	214.460	517.430	105.887	415.190	456.396	56.652	-62.832	719.952	587.828
0.000	0.000	0.000	109.760	606.153	552.028	442.714	577.905	423.491	399.402	477.629	433.539	161.828	575.264	82.245	214.450	517.502	105.815	415.197	456.434	56.662	-62.792	719.947	587.869
0.000	0.000	0.000	109.725	606.090	552.122	442.686	577.942	423.494	399.371	477.672	433.566	161.809	575.308	82.226	214.452	517.458	105.875	415.181	456.442	56.678	-62.775	719.926	587.891
0.000	0.000	0.000	109.686	606.063	552.070	442.652	577.968	423.519	399.387	477.693	433.569	161.804	575.292	82.225	214.368	517.450	105.900	415.193	456.455	56.698	-62.766	719.881	587.962
0.000	0.000	0.000	109.700	605.969	552.113	442.603	577.955	423.535	399.396	477.628	433.600	161.776	575.241	82.238	214.405	517.404	105.874	415.225	456.434	56.692	-62.809	719.814	588.009
0.000	0.000	0.000	109.678	605.999	552.042	442.583	577.982	423.573	399.393	477.605	433.608	161.834	575.229	82.202	214.427	517.384	105.855	415.215	456.422	56.699	-62.741	719.779	588.070
0.000	0.000	0.000	109.741	605.841	552.099	442.554	577.968	423.621	399.393	477.578	433.622	161.813	575.227	82.194	214.413	517.381	105.879	415.223	456.433	56.738	-62.730	719.787	588.059
0.000	0.000	0.000	109.649	605.860	552.088	442.523	577.969	423.624	399.355	477.569	433.614	161.763	575.209	82.252	214.447	517.410	105.841	415.204	456.415	56.732	-62.741	719.768	588.088
0.000	0.000	0.000	109.632	605.834	552.082	442.463	577.952	423.651	399.305	477.604	433.636	161.783	575.212	82.275	214.440	517.382	105.852	415.204	456.429	56.748	-62.731	719.806	588.117
0.000	0.000	0.000	109.562	605.782	552.106	442.438	577.936	423.656	399.276	477.597	433.629	161.806	575.263	82.252	214.361	517.441	105.865	415.179	456.465	56.701	-62.746	719.831	588.106
0.000	0.000	0.000	109.675	605.699	552.128	442.440	577.880	423.680	399.238	477.563	433.662	161.776	575.297	82.234	214.372	517.455	105.869	415.200	456.460	56.711	-62.728	719.858	588.123
0.000	0.000	0.000	109.651	605.638	552.124	442.453	577.840	423.726	399.240	477.522	433.669	161.775	575.289	82.252	214.363	517.452	105.882	415.192	456.458	56.733	-62.705	719.851	588.130
0.000	0.000	0.000	109.644	605.613	552.083	442.463	577.775	423.711	399.219	477.460	433.647	161.790	575.228	82.229	214.347	517.408	105.905	415.191	456.426	56.708	-62.685	719.850	588.091
0.000	0.000	0.000	109.644	605.615	552.070	442.476	577.725	423.714	399.263	477.332	433.658	161.836	575.254	82.258	214.363	517.374	105.867	415.184	456.393	56.686	-62.648	719.825	588.059
0.000	0.000	0.000	109.624	605.628	552.009	442.485	577.634	423.660	399.276	477.247	433.645	161.799	575.201	82.255	214.415	517.333	105.844	415.195	456.373	56.683	-62.633	719.776	588.055
0.000	0.000	0.000	109.580	605.639	551.917	442.529	577.589	423.664	399.270	477.214	433.628	161.814	575.252	82.216	214.408	517.327	105.894	415.165	456.363	56.656	-62.599	719.790	588.037
0.000	0.000	0.000	109.743	605.544	551.956	442.583	577.515	423.614	399.312	477.171	433.597	161.778	575.220	82.241	214.417	517.366	105.860	415.156	456.372	56.676	-62.555	719.831	587.969
0.000	0.000	0.000	109.760	605.551	551.931	442.606	577.424	423.589	399.291	477.129	433.563	161.803	575.237	82.254	214.371	517.381	105.861	415.154	456.373	56.647	-62.565	719.807	587.918
0.000	0.000	0.000	109.776	605.543	551.877	442.670	577.393	423.573	399.304	477.126	433.526	161.783	575.269	82.246	214.422	517.434	105.815	415.154	456.378	56.645	-62.496	719.794	587.918
0.000	0.000	0.000	109.859	605.484	551.813	442.719	577.362	423.554	399.360	477.044	433.523	161.780	575.272	82.252	214.411	517.391	105.833	415.152	456.372	56.623	-62.473	719.765	587.853
0.000	0.000	0.000	109.845	605.565	551.689	442.723	577.323	423.484	399.393	477.009	433.509	161.762	575.234	82.260	214.357	517.360	105.847	415.170	456.354	56.616	-62.438	719.699	587.837
0.000	0.000	0.000	109.832	605.577	551.529	442.771	577.290	423.458	399.473	476.958	433.508	161.823	575.186	82.266	214.443	517.313	105.846	415.199	456.328	56.610	-62.390	719.615	587.782
0.000	0.000	0.000	109.882	605.532	551.496	442.852	577.288	423.464	399.526	476.931	433.438	161.821	575.173	82.293	214.414	517.284	105.876	415.213	456.286	56.613	-62.354	719.556	587.748
0.000	0.000	0.000	110.011	605.483	551.522	442.888	577.280	423.392	399.604	476.936	433.448	161.829	575.201	82.282	214.397	517.310	105.870	415.210	456.305	56.592	-62.297	719.541	587.694
0.000	0.000	0.000	109.968	605.487	551.438	443.002	577.316	423.429	399.611	476.976	433.419	161.795	575.152	82.335	214.403	517.313	105.864	415.213	456.328	56.571	-62.268	719.530	587.678
0.000	0.000	0.000	110.117	605.383	551.473	443.070	577.344	423.406	399.653	477.019	433.412	161.804	575.184	82.361	214.398	517.370	105.857	415.187	456.327	56.573	-62.226	719.561	587.613
0.000	0.000	0.000	110.136	605.363	551.400	443.116	577.383	423.358	399.723	477.059	433.407	161.831	575.190	82.316	214.364	517.383	105.893	415.192	456.338	56.549	-62.161	719.552	587.561
0.000	0.000	0.000	110.219	605.299	551.380	443.162	577.422	423.314	399.760	477.116	433.364	161.854	575.257	82.325	214.424	517.407	105.899	415.193	456.360	56.509	-62.159	719.508	587.495
0.000	0.000	0.000	110.299	605.274	551.322	443.210	577.465	423.260	399.837	477.112	433.331	161.855	575.211	82.332	214.436	517.412	105.859	415.195	456.360	56.526	-62.119	719.460	587.404
0.000	0.000	0.000	110.342	605.211	551.281	443.268	577.503	423.219	399.958	477.138	433.303	161.868	575.219	82.303	214.493	517.381	105.862	415.207	456.335	56.495	-62.075	719.383	587.350
0.000	0.000	0.000	110.394	605.168	551.239	443.385	577.574	423.201	400.070	477.148	433.248	161.869	575.209	82.314	214.488	517.360	105.903	415.240	456.302	56.518	-62.016	719.296	587.302
0.000	0.000	0.000	110.473	605.098	551.208	443.459	577.635	423.170	400.184	477.232	433.189	161.867	575.227	82.311	214.535	517.366	105.846	415.238	456.334	56.483	-62.006	719.259	587.233
0.000	0.000	0.000	110.557	605.053	551.201	443.505	577.712	423.092	400.294	477.314	433.155	161.888	575.230	82.317	214.530	517.457	105.871	415.205	456.378	56.459	-62.047	719.215	587.083
0.000	0.000	0.000	110.661	604.985	551.182	443.627	577.827	423.020	400.383	477.452	433.083	161.915	575.251	82.290	214.473	517.464	105.897	415.244	456.392	56.454	-61.951	719.198	587.070
0.000	0.000	0.000	110.600	605.079	551.106	443.709	577.936	422.985	400.473	477.544	433.040	161.911	575.310	82.317	214.522	517.478	105.877	415.234	456.403	56.459	-61.956	719.163	586.963
0.000	0.000	0.000	110.755	604.942	551.114	443.781	578.029	422.947	400.593	477.624	433.005	161.901	575.299	82.335	214.581	517.543	105.850	415.253	456.427	56.438	-61.951	719.087	586.947
0.000	0.000	0.000	110.821	604.929	551.064	443.861	578.109	422.900	400.697	477.703	432.964	161.920	575.326	82.344	214.546	517.508	105.923	415.261	456.422	56.394	-61.934	719.010	586.866
0.000	0.000	0.000	110.911	604.851	551.056	443.933	578.219	422.832	400.820	477.727	432.955	161.942	575.297	82.304	214.595	517.509	105.885	415.263	456.382	56.383	-61.900	718.969	586.846
0.000	0.000	0.000	110.951	604.811	551.020	443.985	578.308	422.745	400.913	477.809	432.908	161.952	575.290	82.302	214.641	517.470	105.872	415.298	456.380	56.344	-61.829	718.894	586.800
0.000	0.000	0.000	111.086	604.706	551.019	444.039	578.374	422.668	400.992	477.841	432.885	161.949	575.242	82.305	214.619	517.494	105.869	415.296	456.378	56.319	-61.829	718.855	586.754
0.000	0.000	0.000	111.143	604.628	551.015	444.092	578.488	422.687	401.074	477.952	432.866	161.948	575.276	82.310	214.644	517.492	105.934	415.310	456.360	56.334	-61.771	718.812	586.695
0.000	0.000	0.000	111.179	604.639	550.982	444.144	578.538	422.603	401.101	478.054	432.831	161.943	575.263	82.281	214.655	517.552	105.882	415.277	456.392	56.276	-61.743	718.809	586.694
0.000	0.000	0.000	111.248	604.601	550.988	444.164	578.641	422.546	401.159	478.120	432.830	161.984	575.309	82.308	214.672	517.617	105.898	415.291	456.406	56.277	-61.701	718.805	586.677
0.000	0.000	0.000	111.298	604.589	550.971	444.226	578.683	422.504	401.230	478.207	432.784	161.959	575.295	82.277	214.696	517.591	105.882	415.299	456.428	56.279	-61.719	718.758	586.677
0.000	0.000	0.000	111.377	604.553	551.004	444.259	578.777	422.447	401.299	478.269	432.773	162.005	575.314	82.288	214.674	517.605	105.879	415.320	456.417	56.263	-61.682	718.738	586.626
0.000	0.000	0.000	111.447	604.473	551.002	444.322	578.850	422.389	401.368	478.290	432.750	161.945	575.239	82.301	214.667	517.497	105.931	415.346	456.382	56.244	-61.639	718.656	586.669
0.000	0.000	0.000	111.450	604.510	550.995	444.379	578.920	422.391	401.441	478.314	432.749	161.959	575.235	82.297	214.689	517.474	105.925	415.291	456.403	56.185	-61.584	718.612	586.664
0.000	0.000	0.000	111.479	604.514	551.029	444.425	578.980	422.366	401.503	478.340	432.721	161.979	575.233	82.277	214.718	517.487	105.928	415.324	456.384	56.190	-61.545	718.594	586.701
0.000	0.000	0.000	111.543	604.462	551.022	444.438	579.012	422.312	401.570	478.394	432.704	161.954	575.216	82.322	214.702	517.502	105.908	415.290	456.401	56.158	-61.511	718.623	586.702
0.000	0.000	0.000	111.570	604.430	551.049	444.471	579.051	422.312	401.574	478.474	432.693	161.974	575.231	82.291	214.642	517.520	105.958	415.292	456.410	56.165	-61.475	718.617	586.787
0.000	0.000	0.000	111.555	604.463	551.080	444.526	579.111	422.318	401.639	478.518	432.679	161.988	575.263	82.325	214.674	517.544	105.947	415.351	456.416	56.193	-61.400	718.595	586.827
0.000	0.000	0.000	111.578	604.416	551.077	444.537	579.137	422.266	401.686	478.601	432.644	161.970	575.284	82.300	214.728	517.565	105.935	415.339	456.446	56.199	-61.394	718.594	586.852
0.000	0.000	0.000	111.666	604.379	551.100	444.583	579.184	422.260	401.730	478.637	432.632	161.945	575.260	82.341	214.671	517.539	105.952	415.340	456.452	56.215	-61.381	718.580	586.873
0.000	0.000	0.000	111.657	604.446	551.114	444.600	579.226	422.241	401.778	478.623	432.631	161.970	575.241	82.325	214.701	517.553	105.907	415.323	456.438	56.162	-61.303	718.510	586.935
0.000	0.000	0.000	111.760	604.329	551.137	444.633	579.232	422.179	401.892	478.617	432.588	162.021	575.222	82.302	214.730	517.528	105.932	415.303	456.425	56.176	-61.269	718.421	586.988
0.000	0.000	0.000	111.738	604.392	551.161	444.647	579.293	422.164	401.939	478.630	432.601	161.981	575.181	82.298	214.689	517.499	105.941	415.366	456.407	56.256	-61.218	718.402	587.002
0.000	0.000	0.000	111.719	604.420	551.159	444.726	579.337	422.144	401.976	478.697	432.553	161.984	575.193	82.301	214.685	517.530	105.927	415.355	456.424	56.255	-61.246	718.353	587.032
0.000	0.000	0.000	111.822	604.369	551.231	444.752	579.373	422.100	402.009	478.768	432.544	161.997	575.270	82.286	214.723	517.586	105.943	415.330	456.466	56.224	-61.214	718.349	587.074
0.000	0.000	0.000	111.802	604.405	551.199	444.816	579.454	422.113	402.094	478.852	432.516	161.977	575.254	82.322	214.681	517.595	105.921	415.337	456.482	56.258	-61.180	718.344	587.109
0.000	0.000	0.000	111.857	604.392	551.204	444.854	579.498	422.078	402.141	478.897	432.483	161.950	575.271	82.303	214.717	517.611	105.920	415.341	456.514	56.255	-61.197	718.344	587.142
0.000	0.000	0.000	111.888	604.392	551.250	444.903	579.564	422.039	402.214	478.936	432.504	161.938	575.226	82.317	214.708	517.593	105.940	415.349	456.496	56.251	-61.138	718.278	587.213
0.000	0.000	0.000	111.901	604.399	551.258	444.955	579.585	422.009	402.302	478.959	432.480	161.926	575.234	82.311	214.675	517.571	105.951	415.341	456.521	56.252	-61.098	718.231	587.255
0.000	0.000	0.000	111.935	604.377	551.274	444.960	579.653	421.988	402.366	478.991	432.457	161.943	575.205	82.326	214.748	517.559	105.955	415.357	456.506	56.253	-61.101	718.190	587.243
0.000	0.000	0.000	112.006	604.367	551.300	444.986	579.704	421.900	402.461	478.991	432.444	161.940	575.227	82.302	214.733	517.565	105.965	415.401	456.505	56.298	-61.051	718.136	587.312
0.000	0.000	0.000	111.998	604.423	551.295	445.032	579.763	421.803	402.491	479.052	432.426	161.928	575.200	82.316	214.688	517.543	105.990	415.341	456.501	56.257	-61.009	718.121	587.371
0.000	0.000	0.000	112.086	604.334	551.328	445.076	579.842	421.764	402.577	479.096	432.401	161.967	575.229	82.305	214.721	517.594	105.965	415.362	456.536	56.307	-61.025	718.093	587.399
0.000	0.000	0.000	112.159	604.313	551.369	445.127	579.911	421.735	402.582	479.212	432.361	162.006	575.298	82.319	214.721	517.652	105.979	415.357	456.542	56.318	-60.962	718.097	587.420
0.000	0.000	0.000	112.129	604.363	551.343	445.174	579.978	421.694	402.666	479.284	432.354	161.928	575.251	82.365	214.721	517.653	105.997	415.384	456.601	56.330	-60.918	718.068	587.513
0.000	0.000	0.000	112.150	604.395	551.369	445.184	580.042	421.667	402.739	479.316	432.325	161.932	575.274	82.333	214.695	517.674	106.022	415.359	456.587	56.338	-60.890	718.057	587.511
0.000	0.000	0.000	112.212	604.375	551.396	445.262	580.081	421.640	402.803	479.351	432.312	161.943	575.272	82.357	214.763	517.665	105.985	415.360	456.578	56.320	-60.854	717.987	587.595
0.000	0.000	0.000	112.275	604.336	551.419	445.321	580.153	421.626	402.864	479.381	432.287	161.922	575.189	82.368	214.709	517.630	106.013	415.381	456.564	56.323	-60.806	717.943	587.573
0.000	0.000	0.000	112.277	604.392	551.407	445.369	580.210	421.609	402.948	479.396	432.291	161.942	575.226	82.353	214.722	517.605	106.029	415.429	456.585	56.284	-60.815	717.894	587.559
0.000	0.000	0.000	112.311	604.393	551.414	445.445	580.246	421.568	403.033	479.440	432.257	161.946	575.220	82.366	214.737	517.617	106.019	415.399	456.584	56.294	-60.770	717.889	587.508
0.000	0.000	0.000	112.349	604.401	551.377	445.498	580.302	421.521	403.101	479.485	432.249	161.957	575.196	82.381	214.794	517.663	105.986	415.384	456.603	56.298	-60.750	717.834	587.564
0.000	0.000	0.000	112.371	604.364	551.413	445.547	580.335	421.488	403.129	479.557	432.233	161.923	575.248	82.345	214.797	517.707	106.001	415.402	456.603	56.280	-60.682	717.865	587.539
0.000	0.000	0.000	112.451	604.346	551.413	445.630	580.383	421.455	403.205	479.623	432.173	161.964	575.274	82.387	214.764	517.706	106.033	415.394	456.610	56.249	-60.693	717.823	587.477
0.000	0.000	0.000	112.444	604.341	551.378	445.696	580.410	421.393	403.269	479.667	432.162	161.949	575.294	82.363	214.803	517.754	105.978	415.389	456.592	56.241	-60.657	717.790	587.451
0.000	0.000	0.000	112.528	604.311	551.384	445.751	580.453	421.343	403.330	479.685	432.116	162.006	575.274	82.346	214.831	517.771	106.004	415.398	456.627	56.220	-60.635	717.754	587.383
0.000	0.000	0.000	112.563	604.331	551.362	445.819	580.447	421.264	403.416	479.670	432.118	161.979	575.259	82.378	214.828	517.747	106.009	415.413	456.598	56.199	-60.593	717.651	587.361
0.000	0.000	0.000	112.577	604.313	551.357	445.910	580.509	421.225	403.504	479.686	432.078	162.001	575.258	82.367	214.849	517.751	105.979	415.411	456.586	56.201	-60.576	717.586	587.317
0.000	0.000	0.000	112.708	604.294	551.362	445.981	580.517	421.187	403.564	479.669	432.067	162.043	575.293	82.407	214.962	517.732	106.020	415.460	456.589	56.225	-60.545	717.537	587.284
0.000	0.000	0.000	112.705	604.325	551.310	446.064	580.545	421.154	403.648	479.732	432.002	162.010	575.288	82.359	214.894	517.786	106.013	415.449	456.590	56.199	-60.505	717.495	587.233
0.000	0.000	0.000	112.758	604.315	551.328	446.111	580.614	421.114	403.703	479.756	431.984	162.005	575.274	82.390	214.953	517.798	106.044	415.415	456.613	56.163	-60.463	717.488	587.142
0.000	0.000	0.000	112.783	604.315	551.284	446.186	580.629	421.094	403.746	479.830	431.951	162.046	575.325	82.402	214.916	517.848	106.037	415.456	456.616	56.180	-60.459	717.413	587.115
0.000	0.000	0.000	112.829	604.295	551.290	446.212	580.672	421.038	403.801	479.888	431.937	162.047	575.366	82.375	214.889	517.833	106.040	415.450	456.619	56.178	-60.440	717.366	587.089
0.000	0.000	0.000	112.903	604.239	551.262	446.273	580.746	421.015	403.895	479.889	431.910	162.045	575.325	82.404	214.956	517.836	106.062	415.454	456.593	56.181	-60.454	717.286	587.013
0.000	0.000	0.000	112.878	604.281	551.270	446.288	580.793	420.939	404.018	479.927	431.875	162.071	575.315	82.373	214.975	517.835	106.051	415.471	456.596	56.160	-60.415	717.246	586.970
0.000	0.000	0.000	112.995	604.174	551.247	446.342	580.867	420.914	404.079	479.920	431.894	162.091	575.306	82.429	214.965	517.813	106.070	415.465	456.497	56.172	-60.429	717.149	586.915
0.000	0.000	0.000	112.951	604.242	551.224	446.397	580.948	420.896	404.147	480.029	431.828	162.102	575.293	82.470	215.018	517.807	106.122	415.473	456.604	56.118	-60.396	717.105	586.854
0.000	0.000	0.000	112.979	604.236	551.206	446.448	581.017	420.866	404.204	480.071	431.837	162.058	575.330	82.487	214.994	517.850	106.101	415.489	456.589	56.145	-60.397	717.104	586.757
0.000	0.000	0.000	112.989	604.196	551.176	446.504	581.128	420.858	404.235	480.171	431.800	162.084	575.337	82.451	214.988	517.884	106.061	415.476	456.619	56.077	-60.427	717.092	586.717
0.000	0.000	0.000	113.064	604.161	551.179	446.542	581.254	420.814	404.291	480.320	431.723	162.117	575.392	82.405	215.029	517.921	106.050	415.502	456.621	56.050	-60.384	717.115	586.669
0.000	0.000	0.000	113.085	604.130	551.018	446.567	581.322	420.788	404.335	480.404	431.736	162.132	575.365	82.440	215.039	517.884	106.098	415.504	456.626	56.052	-60.349	717.073	586.584
0.000	0.000	0.000	113.104	604.122	550.953	446.592	581.399	420.787	404.431	480.499	431.686	162.073	575.331	82.417	215.104	517.958	106.061	415.485	456.631	56.054	-60.351	717.012	586.516
0.000	0.000	0.000	113.127	604.146	550.833	446.654	581.502	420.773	404.487	480.522	431.705	162.117	575.311	82.451	215.052	517.910	106.066	415.521	456.609	56.034	-60.361	716.959	586.479
0.000	0.000	0.000	113.116	604.097	550.799	446.636	581.570	420.765	404.530	480.572	431.720	162.146	575.336	82.426	215.127	517.949	106.077	415.525	456.612	56.035	-60.327	716.903	586.428
0.000	0.000	0.000	113.091	604.129	550.728	446.630	581.657	420.742	404.599	480.706	431.643	162.121	575.301	82.390	215.053	517.930	106.055	415.544	456.615	56.055	-60.384	716.851	586.373
0.000	0.000	0.000	113.046	604.103	550.662	446.649	581.732	420.721	404.603	480.748	431.704	162.143	575.331	82.409	215.135	517.958	106.095	415.544	456.644	56.067	-60.400	716.856	586.339
0.000	0.000	0.000	113.037	604.075	550.588	446.681	581.815	420.740	404.583	480.865	431.694	162.153	575.358	82.430	215.105	518.009	106.092	415.516	456.614	56.079	-60.407	716.833	586.239
0.000	0.000	0.000	112.995	604.072	550.501	446.667	581.913	420.708	404.650	480.981	431.636	162.127	575.370	82.434	214.979	518.039	106.080	415.517	456.623	56.085	-60.452	716.791	586.137
0.000	0.000	0.000	112.951	604.087	550.427	446.643	582.011	420.695	404.672	481.076	431.607	162.114	575.408	82.409	215.128	518.038	106.109	415.537	456.705	56.118	-60.520	716.792	586.068
0.000	0.000	0.000	112.944	604.039	550.341	446.658	582.096	420.705	404.631	481.143	431.630	162.119	575.382	82.419	215.092	518.051	106.123	415.513	456.649	56.145	-60.537	716.759	585.965
0.000	0.000	0.000	112.879	604.033	550.237	446.633	582.171	420.665	404.697	481.176	431.603	162.087	575.371	82.375	215.085	518.061	106.133	415.544	456.745	56.141	-60.597	716.730	585.871
0.000	0.000	0.000	112.859	603.967	550.185	446.644	582.249	420.694	404.735	481.226	431.592	162.116	575.347	82.423	215.138	518.028	106.108	415.538	456.754	56.149	-60.652	716.657	585.743
0.000	0.000	0.000	112.779	604.008	550.090	446.635	582.344	420.674	404.739	481.297	431.580	162.058	575.333	82.344	215.110	518.046	106.122	415.554	456.747	56.164	-60.714	716.593	585.657
0.000	0.000	0.000	112.684	603.981	550.017	446.633	582.407	420.674	404.737	481.392	431.574	162.114	575.387	82.405	215.074	518.031	106.105	415.550	456.758	56.154	-60.742	716.588	585.564
0.000	0.000	0.000	112.672	603.937	549.938	446.609	582.515	420.661	404.730	481.450	431.635	162.065	575.374	82.344	215.067	518.048	106.138	415.558	456.782	56.168	-60.837	716.560	585.434
0.000	0.000	0.000	112.608	603.902	549.884	446.573	582.565	420.671	404.738	481.571	431.594	162.048	575.384	82.355	215.028	518.090	106.125	415.554	456.823	56.174	-60.977	716.556	585.240
0.000	0.000	0.000	112.511	603.905	549.791	446.603	582.632	420.694	404.762	481.610	431.594	162.049	575.393	82.399	215.149	518.119	106.105	415.568	456.819	56.162	-60.964	716.564	585.145
0.000	0.000	0.000	112.448	603.873	549.727	446.569	582.701	420.647	404.772	481.678	431.552	162.136	575.431	82.379	215.038	518.130	106.109	415.565	456.816	56.162	-61.055	716.563	585.026
0.000	0.000	0.000	112.393	603.855	549.658	446.589	582.769	420.638	404.797	481.705	431.560	162.078	575.387	82.345	215.166	518.098	106.115	415.565	456.754	56.175	-61.102	716.498	584.917
0.000	0.000	0.000	112.357	603.812	549.599	446.585	582.812	420.641	404.845	481.723	431.581	162.059	575.354	82.370	215.072	518.066	106.159	415.612	456.820	56.182	-61.188	716.458	584.799
0.000	0.000	0.000	112.288	603.796	549.542	446.616	582.886	420.623	404.854	481.742	431.578	162.089	575.347	82.340	215.145	518.081	106.087	415.569	456.759	56.174	-61.273	716.430	584.650
0.000	0.000	0.000	112.242	603.805	549.472	446.617	582.944	420.639	404.849	481.799	431.606	162.127	575.369	82.370	215.077	518.106	106.163	415.622	456.823	56.157	-61.313	716.418	584.524
0.000	0.000	0.000	112.147	603.788	549.414	446.591	582.976	420.594	404.889	481.846	431.563	162.094	575.403	82.390	215.199	518.110	106.138	415.615	456.836	56.180	-61.400	716.408	584.413
0.000	0.000	0.000	112.077	603.804	549.340	446.611	583.029	420.587	404.915	481.874	431.568	162.076	575.420	82.344	215.109	518.116	106.189	415.629	456.840	56.181	-61.418	716.434	584.256
0.000	0.000	0.000	112.063	603.694	549.306	446.634	583.070	420.588	404.886	481.931	431.576	162.109	575.442	82.356	215.113	518.165	106.138	415.567	456.812	56.165	-61.599	716.418	584.061
0.000	0.000	0.000	112.017	603.697	549.253	446.624	583.099	420.544	404.904	481.946	431.546	162.074	575.412	82.399	215.095	518.160	106.135	415.608	456.823	56.184	-61.648	716.407	583.934
0.000	0.000	0.000	111.993	603.615	549.184	446.648	583.123	420.546	404.889	482.003	431.517	162.096	575.421	82.384	215.162	518.157	106.096	415.598	456.875	56.162	-61.721	716.370	583.795
0.000	0.000	0.000	111.933	603.673	549.138	446.608	583.165	420.509	404.924	482.024	431.517	162.103	575.413	82.341	215.170	518.159	106.099	415.606	456.871	56.179	-61.810	716.292	583.606
0.000	0.000	0.000	111.861	603.583	549.062	446.609	583.185	420.505	404.957	482.030	431.513	162.072	575.381	82.338	215.158	518.110	106.113	415.595	456.781	56.174	-61.924	716.216	583.456
0.000	0.000	0.000	111.758	603.605	549.006	446.638	583.240	420.543	405.014	482.001	431.517	162.083	575.369	82.351	215.184	518.117	106.148	415.617	456.883	56.143	-62.015	716.156	583.294
0.000	0.000	0.000	111.753	603.607	548.922	446.632	583.254	420.505	405.007	482.054	431.491	162.079	575.387	82.358	215.188	518.159	106.110	415.594	456.823	56.177	-62.086	716.124	583.118
0.000	0.000	0.000	111.729	603.485	548.907	446.638	583.302	420.514	405.011	482.098	431.483	162.102	575.421	82.395	215.195	518.177	106.116	415.627	456.890	56.163	-62.157	716.112	582.961
0.000	0.000	0.000	111.663	603.462	548.849	446.631	583.342	420.521	405.004	482.174	431.491	162.030	575.431	82.348	215.183	518.184	106.108	415.616	456.929	56.167	-62.298	716.090	582.809
0.000	0.000	0.000	111.548	603.520	548.721	446.659	583.364	420.502	404.974	482.180	431.473	162.025	575.468	82.348	215.105	518.231	106.123	415.611	456.944	56.147	-62.336	716.052	582.661
0.000	0.000	0.000	111.467	603.471	548.664	446.578	583.384	420.484	405.025	482.160	431.476	162.069	575.454	82.329	215.202	518.198	106.108	415.632	456.922	56.172	-62.447	716.011	582.494
0.000	0.000	0.000	111.440	603.368	548.620	446.596	583.396	420.464	405.005	482.202	431.433	162.056	575.429	82.335	215.219	518.197	106.126	415.589	456.870	56.163	-62.494	715.950	582.285
0.000	0.000	0.000	111.345	603.389	548.492	446.553	583.402	420.471	405.044	482.156	431.457	162.094	575.379	82.354	215.222	518.130	106.110	415.652	456.882	56.187	-62.576	715.926	582.131
0.000	0.000	0.000	111.275	603.313	548.392	446.538	583.446	420.442	405.048	482.141	431.473	162.051	575.326	82.382	215.185	518.114	106.159	415.663	456.874	56.200	-62.537	715.923	581.931
0.000	0.000	0.000	111.317	603.210	548.288	446.518	583.454	420.453	405.027	482.176	431.454	162.109	575.361	82.361	215.168	518.154	106.138	415.645	456.844	56.210	-62.635	715.867	581.828
0.000	0.000	0.000	111.221	603.161	548.222	446.527	583.461	420.459	405.013	482.158	431.487	162.062	575.418	82.360	215.213	518.167	106.142	415.605	456.891	56.199	-62.774	715.838	581.703
0.000	0.000	0.000	111.173	603.101	548.155	446.463	583.483	420.462	404.999	482.226	431.482	162.050	575.406	82.330	215.150	518.167	106.149	415.614	456.946	56.193	-62.805	715.812	581.640
0.000	0.000	0.000	111.072	603.077	548.063	446.437	583.490	420.491	404.934	482.261	431.450	162.035	575.409	82.343	215.152	518.254	106.114	415.651	456.950	56.201	-62.963	715.773	581.415
0.000	0.000	0.000	110.979	603.058	547.980	446.439	583.500	420.499	404.964	482.223	431.480	162.055	575.466	82.366	215.178	518.219	106.106	415.620	456.921	56.222	-63.052	715.711	581.341
0.000	0.000	0.000	110.899	603.050	547.902	446.383	583.496	420.512	404.938	482.212	431.475	162.039	575.381	82.302	215.152	518.181	106.158	415.653	456.964	56.231	-63.124	715.610	581.212
0.000	0.000	0.000	110.845	602.993	547.839	446.393	583.502	420.556	404.910	482.183	431.467	162.068	575.367	82.321	215.147	518.155	106.144	415.670	456.944	56.191	-63.249	715.569	581.084
0.000	0.000	0.000	110.711	603.021	547.713	446.303	583.491	420.542	404.889	482.166	431.490	162.075	575.413	82.354	215.172	518.133	106.133	415.681	456.923	56.216	-63.351	715.480	581.009
0.000	0.000	0.000	110.570	603.001	547.666	446.295	583.489	420.582	404.848	482.159	431.509	162.046	575.423	82.284	215.167	518.123	106.102	415.643	456.943	56.205	-63.574	715.341	580.971
0.000	0.000	0.000	110.519	602.950	547.595	446.277	583.475	420.629	404.778	482.178	431.500	162.035	575.368	82.326	215.195	518.149	106.081	415.615	456.936	56.186	-63.636	715.297	580.863
0.000	0.000	0.000	110.356	603.019	547.457	446.158	583.463	420.622	404.702	482.210	431.535	162.044	575.447	82.321	215.119	518.169	106.073	415.628	456.953	56.176	-63.744	715.273	580.786
0.000	0.000	0.000	110.297	602.952	547.459	446.148	583.464	420.687	404.675	482.233	431.571	162.038	575.422	82.316	215.118	518.161	106.150	415.633	456.966	56.206	-63.869	715.208	580.711
0.000	0.000	0.000	110.121	602.984	547.343	446.054	583.456	420.712	404.614	482.194	431.605	162.045	575.410	82.319	215.137	518.143	106.158	415.634	456.952	56.186	-63.969	715.153	580.612
0.000	0.000	0.000	110.098	602.892	547.338	445.988	583.471	420.745	404.542	482.181	431.662	162.037	575.412	82.327	215.182	518.120	106.057	415.628	456.925	56.191	-64.048	715.091	580.539
0.000	0.000	0.000	109.988	602.899	547.317	445.889	583.449	420.757	404.493	482.170	431.688	162.081	575.342	82.290	215.201	518.062	106.015	415.644	456.832	56.196	-64.108	715.018	580.418
0.000	0.000	0.000	109.891	602.832	547.265	445.776	583.459	420.759	404.428	482.160	431.741	162.020	575.307	82.289	215.135	518.069	106.064	415.635	456.823	56.194	-64.214	714.997	580.360
0.000	0.000	0.000	109.722	602.906	547.161	445.730	583.488	420.874	404.370	482.174	431.779	162.046	575.339	82.288	215.125	518.050	106.063	415.640	456.927	56.185	-64.329	714.917	580.289
0.000	0.000	0.000	109.674	602.842	547.156	445.642	583.496	420.983	404.255	482.222	431.812	162.035	575.368	82.350	215.122	518.068	106.079	415.650	456.925	56.186	-64.459	714.936	580.265
0.000	0.000	0.000	109.535	602.822	547.094	445.550	583.528	420.999	404.079	482.210	431.902	162.006	575.376	82.335	215.055	518.088	106.089	415.620	456.950	56.212	-64.559	714.931	580.201
0.000	0.000	0.000	109.446	602.768	547.069	445.416	583.539	421.074	404.029	482.252	431.908	161.965	575.336	82.313	215.061	518.088	106.119	415.633	456.938	56.196	-64.700	714.925	580.177
0.000	0.000	0.000	109.367	602.695	547.040	445.290	583.538	421.134	403.928	482.241	431.958	161.976	575.352	82.292	215.032	518.068	106.112	415.622	456.975	56.208	-64.835	714.894	580.133
0.000	0.000	0.000	109.260	602.662	547.026	445.175	583.532	421.220	403.796	482.182	432.049	161.969	575.315	82.292	214.951	518.047	106.100	415.623	456.934	56.243	-64.902	714.853	580.081
0.000	0.000	0.000	109.194	602.592	546.981	445.006	583.546	421.277	403.721	482.155	432.078	161.934	575.260	82.276	215.074	517.985	106.024	415.610	456.930	56.272	-65.018	714.828	580.023
0.000	0.000	0.000	109.041	602.564	546.936	444.891	583.537	421.382	403.606	482.169	432.131	161.917	575.231	82.293	214.918	517.916	106.089	415.617	456.919	56.274	-65.136	714.774	579.976
0.000	0.000	0.000	108.988	602.514	546.936	444.739	583.565	421.365	403.524	482.129	432.175	161.909	575.258	82.256	214.943	517.950	106.049	415.594	456.945	56.283	-65.191	714.779	579.929
0.000	0.000	0.000	108.803	602.477	546.879	444.669	583.563	421.435	403.410	482.171	432.198	161.901	575.303	82.250	214.962	517.969	106.050	415.585	456.963	56.319	-65.326	714.768	579.866
0.000	0.000	0.000	108.721	602.475	546.875	444.509	583.535	421.499	403.308	482.174	432.255	161.875	575.336	82.219	214.921	517.970	106.056	415.575	456.959	56.358	-65.429	714.813	579.807
0.000	0.000	0.000	108.605	602.462	546.791	444.427	583.522	421.587	403.192	482.176	432.282	161.847	575.327	82.229	214.883	517.960	106.028	415.565	456.924	56.380	-65.571	714.842	579.727
0.000	0.000	0.000	108.526	602.392	546.794	444.327	583.520	421.685	403.006	482.200	432.331	161.850	575.301	82.239	214.886	517.982	106.023	415.540	456.902	56.371	-65.626	714.821	579.708
0.000	0.000	0.000	108.352	602.429	546.768	444.234	583.478	421.707	402.945	482.148	432.404	161.884	575.351	82.214	214.836	517.990	106.026	415.539	456.965	56.368	-65.722	714.801	579.602
0.000	0.000	0.000	108.223	602.376	546.736	444.141	583.478	421.783	402.874	482.085	432.452	161.830	575.292	82.214	214.846	517.886	105.991	415.546	456.978	56.409	-65.843	714.723	579.553
0.000	0.000	0.000	108.131	602.367	546.651	444.048	583.466	421.795	402.802	482.048	432.516	161.852	575.224	82.222	214.865	517.887	106.003	415.537	456.863	56.415	-65.926	714.648	579.469
0.000	0.000	0.000	108.061	602.357	546.663	444.039	583.464	421.906	402.763	482.015	432.532	161.810	575.232	82.236	214.813	517.877	106.012	415.546	456.897	56.452	-66.029	714.661	579.445
0.000	0.000	0.000	107.966	602.379	546.616	443.967	583.430	421.902	402.658	482.021	432.538	161.816	575.242	82.212	214.820	517.890	106.036	415.509	456.850	56.427	-66.112	714.695	579.323
0.000	0.000	0.000	107.880	602.374	546.570	443.919	583.403	421.942	402.603	482.054	432.543	161.800	575.278	82.226	214.778	517.921	106.017	415.506	456.896	56.429	-66.171	714.707	579.211
0.000	0.000	0.000	107.875	602.341	546.541	443.875	583.395	421.963	402.558	482.051	432.621	161.802	575.260	82.215	214.830	517.939	105.999	415.513	456.966	56.444	-66.231	714.717	579.111
0.000	0.000	0.000	107.725	602.432	546.476	443.859	583.365	421.972	402.503	482.052	432.630	161.795	575.274	82.199	214.778	517.955	106.030	415.513	456.949	56.458	-66.289	714.719	579.030
0.000	0.000	0.000	107.738	602.333	546.490	443.854	583.405	421.997	402.480	482.014	432.627	161.801	575.267	82.212	214.769	517.909	106.010	415.501	456.882	56.458	-66.346	714.662	578.939
0.000	0.000	0.000	107.686	602.395	546.404	443.797	583.394	421.967	402.489	481.988	432.649	161.793	575.266	82.206	214.811	517.880	105.984	415.531	456.942	56.450	-66.337	714.659	578.784
0.000	0.000	0.000	107.678	602.347	546.389	443.819	583.367	421.986	402.470	482.024	432.633	161.810	575.259	82.181	214.824	517.885	105.958	415.539	456.947	56.457	-66.383	714.633	578.745
0.000	0.000	0.000	107.643	602.339	546.363	443.812	583.420	421.961	402.492	482.026	432.636	161.763	575.239	82.195	214.781	517.891	105.998	415.534	456.948	56.447	-65.428	714.942	578.070
0.000	0.000	0.000	107.632	602.331	546.305	443.764	583.439	421.914	402.483	482.068	432.642	161.832	575.255	82.218	214.789	517.920	106.002	415.520	456.885	56.451	-65.430	714.956	577.948
0.000	0.000	0.000	107.611	602.323	546.292	443.805	583.497	421.982	402.472	482.115	432.628	161.790	575.309	82.156	214.745	517.923	106.036	415.533	456.955	56.453	-65.467	714.970	577.904
0.000	0.000	0.000	107.512	602.401	546.166	443.817	583.577	421.983	402.498	482.175	432.600	161.790	575.304	82.202	214.778	517.926	106.063	415.513	456.927	56.467	-65.495	714.964	577.843
0.000	0.000	0.000	107.541	602.307	546.196	443.802	583.591	421.917	402.528	482.209	432.614	161.793	575.339	82.184	214.766	517.961	106.035	415.519	456.941	56.474	-65.559	714.909	577.767
0.000	0.000	0.000	107.554	602.378	546.112	443.821	583.677	421.927	402.549	482.284	432.592	161.798	575.271	82.211	214.720	517.970	106.041	415.558	457.004	56.466	-65.512	714.846	577.713
0.000	0.000	0.000	107.527	602.346	546.031	443.856	583.740	421.928	402.599	482.298	432.620	161.828	575.319	82.174	214.775	517.931	106.023	415.548	456.934	56.464	-65.506	714.858	577.602
0.000	0.000	0.000	107.593	602.298	546.027	443.856	583.822	421.899	402.634	482.352	432.597	161.800	575.303	82.182	214.876	517.972	105.989	415.542	456.942	56.475	-65.552	714.802	577.516
0.000	0.000	0.000	107.511	602.353	545.976	443.904	583.884	421.890	402.666	482.401	432.593	161.808	575.301	82.209	214.860	517.991	106.029	415.577	457.030	56.487	-65.567	714.773	577.454
0.000	0.000	0.000	107.581	602.287	545.937	443.946	583.986	421.896	402.694	482.485	432.564	161.856	575.311	82.187	214.878	518.046	106.008	415.539	456.970	56.473	-65.605	714.805	577.347
0.000	0.000	0.000	107.563	602.290	545.870	443.943	584.013	421.813	402.754	482.556	432.569	161.819	575.342	82.219	214.847	518.094	106.025	415.537	457.004	56.507	-65.570	714.782	577.308
0.000	0.000	0.000	107.524	602.301	545.778	443.996	584.087	421.837	402.795	482.599	432.517	161.796	575.353	82.193	214.911	518.087	106.015	415.527	457.014	56.514	-65.538	714.818	577.238
0.000	0.000	0.000	107.621	602.248	545.736	443.981	584.122	421.733	402.837	482.647	432.483	161.817	575.381	82.175	214.872	518.092	106.001	415.553	457.096	56.479	-65.615	714.796	577.162
0.000	0.000	0.000	107.643	602.239	545.661	444.039	584.150	421.735	402.881	482.691	432.467	161.825	575.374	82.210	214.875	518.135	106.030	415.567	457.053	56.545	-65.556	714.749	577.098
0.000	0.000	0.000	107.680	602.201	545.595	444.048	584.196	421.678	402.951	482.677	432.440	161.816	575.362	82.186	214.908	518.154	106.020	415.587	457.030	56.512	-65.569	714.723	577.044
0.000	0.000	0.000	107.743	602.253	545.541	444.114	584.184	421.658	403.051	482.668	432.424	161.835	575.335	82.212	214.820	518.068	106.051	415.584	457.092	56.490	-65.567	714.680	576.954
0.000	0.000	0.000	107.790	602.239	545.450	444.172	584.195	421.634	403.078	482.665	432.400	161.846	575.374	82.179	214.930	518.068	106.061	415.596	457.017	56.486	-65.525	714.654	576.905
0.000	0.000	0.000	107.830	602.247	545.344	444.201	584.194	421.591	403.152	482.636	432.371	161.846	575.342	82.179	214.917	518.058	106.061	415.587	457.109	56.469	-65.455	714.596	576.771
0.000	0.000	0.000	107.915	602.225	545.285	444.209	584.148	421.548	403.175	482.617	432.313	161.865	575.336	82.193	214.892	518.072	106.043	415.595	457.017	56.446	-65.398	714.614	576.689
0.000	0.000	0.000	107.930	602.229	545.177	444.296	584.106	421.537	403.207	482.620	432.262	161.843	575.331	82.208	214.883	518.042	106.047	415.601	457.017	56.460	-65.452	714.554	576.657
0.000	0.000	0.000	107.942	602.273	545.009	444.338	584.091	421.487	403.263	482.555	432.212	161.888	575.397	82.214	214.884	518.136	106.075	415.605	457.066	56.420	-65.334	714.580	576.564
0.000	0.000	0.000	107.975	602.261	544.961	444.393	584.021	421.457	403.290	482.542	432.184	161.866	575.388	82.201	214.934	518.094	106.029	415.562	457.020	56.401	-65.367	714.480	576.464
0.000	0.000	0.000	107.993	602.277	544.874	444.486	583.985	421.401	403.368	482.453	432.181	161.866	575.359	82.226	214.915	518.061	106.056	415.589	456.981	56.391	-65.270	714.462	576.380
0.000	0.000	0.000	108.083	602.255	544.802	444.544	583.893	421.405	403.366	482.395	432.151	161.913	575.326	82.243	215.003	518.061	106.026	415.623	457.010	56.340	-65.274	714.404	576.269
0.000	0.000	0.000	108.093	602.257	544.696	444.587	583.838	421.349	403.477	482.303	432.115	161.920	575.264	82.284	214.900	517.965	106.127	415.596	456.953	56.306	-65.225	714.393	576.084
0.000	0.000	0.000	108.193	602.195	544.690	444.646	583.732	421.372	403.508	482.228	432.124	161.942	575.287	82.273	214.993	517.961	106.051	415.633	456.958	56.270	-65.152	714.379	576.007
0.000	0.000	0.000	108.200	602.224	544.610	444.712	583.680	421.295	403.549	482.201	432.118	161.986	575.316	82.291	215.001	517.994	106.062	415.628	456.876	56.274	-65.154	714.345	575.942
0.000	0.000	0.000	108.260	602.187	544.600	444.789	583.586	421.309	403.579	482.130	432.083	161.937	575.280	82.316	214.998	517.975	106.107	415.638	456.948	56.174	-65.123	714.386	575.811
0.000	0.000	0.000	108.272	602.200	544.505	444.834	583.490	421.379	403.583	482.061	432.051	161.974	575.295	82.322	214.975	517.962	106.087	415.613	456.941	56.141	-65.120	714.429	575.682
0.000	0.000	0.000	108.334	602.176	544.514	444.861	583.422	421.292	403.629	481.990	432.016	161.959	575.266	82.302	215.043	517.978	106.139	415.649	456.929	56.099	-65.076	714.431	575.552
0.000	0.000	0.000	108.332	602.194	544.430	444.930	583.347	421.295	403.658	481.913	431.998	161.976	575.306	82.317	215.049	517.976	106.032	415.654	456.903	56.039	-65.049	714.449	575.458
0.000	0.000	0.000	108.416	602.167	544.354	444.999	583.253	421.291	403.659	481.810	431.958	161.995	575.246	82.312	215.016	517.922	106.080	415.696	456.849	56.077	-64.972	714.421	575.329
0.000	0.000	0.000	108.398	602.188	544.319	445.005	583.165	421.232	403.670	481.715	431.931	161.968	575.247	82.305	215.021	517.873	106.021	415.637	456.879	56.067	-64.950	714.450	575.249
0.000	0.000	0.000	108.408	602.178	544.217	445.064	583.036	421.234	403.696	481.635	431.880	162.007	575.221	82.318	215.065	517.899	106.033	415.677	456.850	56.077	-64.917	714.505	575.183
0.000	0.000	0.000	108.458	602.125	544.203	445.054	582.967	421.170	403.696	481.555	431.860	161.984	575.247	82.328	215.022	517.842	106.062	415.629	456.861	56.065	-64.868	714.504	575.110
0.000	0.000	0.000	108.548	602.091	544.079	445.082	582.828	421.163	403.666	481.456	431.816	162.054	575.319	82.300	215.012	517.941	106.000	415.649	456.872	56.090	-64.853	714.578	575.004
0.000	0.000	0.000	108.573	602.042	544.058	445.092	582.731	421.128	403.694	481.392	431.774	161.994	575.289	82.298	215.009	517.943	106.032	415.639	456.873	56.068	-64.787	714.640	574.814
0.000	0.000	0.000	108.593	602.111	543.960	445.115	582.612	421.126	403.688	481.302	431.718	161.979	575.321	82.306	215.019	517.917	106.054	415.632	456.867	56.075	-64.805	714.632	574.720
0.000	0.000	0.000	108.678	602.084	543.959	445.123	582.499	421.088	403.718	481.167	431.687	161.982	575.307	82.304	215.040	517.886	106.002	415.637	456.855	56.071	-64.729	714.615	574.641
0.000	0.000	0.000	108.654	602.136	543.858	445.191	582.411	421.096	403.701	481.050	431.688	162.011	575.309	82.297	215.028	517.900	106.023	415.655	456.810	56.107	-64.753	714.602	574.575
0.000	0.000	0.000	108.738	602.111	543.699	445.200	582.327	421.061	403.708	480.951	431.684	162.013	575.287	82.290	215.030	517.823	106.057	415.624	456.805	56.085	-64.679	714.561	574.531
0.000	0.000	0.000	108.742	602.156	543.585	445.204	582.229	421.025	403.737	480.897	431.650	161.992	575.238	82.308	215.005	517.850	106.063	415.651	456.788	56.092	-64.723	714.500	574.460
0.000	0.000	0.000	108.791	602.180	543.499	445.267	582.199	421.037	403.735	480.832	431.644	161.998	575.287	82.376	214.986	517.835	106.088	415.631	456.798	56.116	-64.670	714.508	574.422
0.000	0.000	0.000	108.791	602.220	543.425	445.259	582.163	421.020	403.720	480.804	431.617	162.020	575.292	82.323	215.032	517.852	106.020	415.620	456.814	56.129	-64.701	714.468	574.381
0.000	0.000	0.000	108.818	602.206	543.357	445.291	582.169	420.986	403.713	480.850	431.549	161.962	575.305	82.324	214.967	517.832	106.061	415.588	456.770	56.152	-64.709	714.435	574.300
0.000	0.000	0.000	108.849	602.211	543.271	445.296	582.144	420.992	403.695	480.865	431.591	161.954	575.328	82.327	214.969	517.882	106.010	415.620	456.863	56.117	-64.690	714.467	574.248
0.000	0.000	0.000	108.849	602.213	543.225	445.318	582.157	420.973	403.735	480.863	431.588	161.958	575.304	82.320	214.917	517.824	106.069	415.603	456.869	56.114	-64.608	714.445	574.205
0.000	0.000	0.000	108.854	602.243	543.142	445.320	582.206	420.952	403.759	480.874	431.541	161.944	575.308	82.317	215.000	517.887	106.045	415.592	456.875	56.128	-64.692	714.389	574.152
0.000	0.000	0.000	108.901	602.196	543.119	445.294	582.234	420.971	403.792	480.885	431.553	161.948	575.282	82.316	215.019	517.895	105.978	415.602	456.808	56.166	-64.640	714.396	574.099
0.000	0.000	0.000	108.887	602.218	543.084	445.288	582.309	420.907	403.782	480.872	431.583	161.939	575.278	82.359	215.023	517.884	106.015	415.600	456.838	56.141	-64.649	714.376	574.044
0.000	0.000	0.000	108.882	602.182	543.042	445.293	582.350	420.903	403.815	480.932	431.586	161.955	575.274	82.287	215.019	517.874	106.076	415.620	456.861	56.170	-64.663	714.356	574.053
0.000	0.000	0.000	108.843	602.149	543.031	445.318	582.421	420.913	403.849	481.029	431.549	161.949	575.341	82.302	215.025	517.945	106.035	415.636	456.881	56.184	-64.638	714.414	573.981
0.000	0.000	0.000	108.892	602.168	543.029	445.302	582.497	420.902	403.874	481.128	431.542	161.941	575.355	82.302	214.980	517.934	106.042	415.624	456.910	56.203	-64.649	714.459	574.006
0.000	0.000	0.000	108.874	602.180	542.988	445.333	582.574	420.907	403.878	481.227	431.555	161.961	575.371	82.336	215.005	518.021	106.055	415.619	456.923	56.177	-64.583	714.523	573.911
0.000	0.000	0.000	108.917	602.178	543.001	445.334	582.665	420.919	403.921	481.320	431.560	161.960	575.361	82.278	215.021	518.016	106.041	415.612	456.858	56.205	-64.582	714.508	573.920
0.000	0.000	0.000	108.873	602.194	542.955	445.351	582.749	420.931	403.962	481.330	431.598	161.965	575.373	82.296	215.011	518.005	106.065	415.642	456.945	56.186	-64.600	714.513	573.921
0.000	0.000	0.000	108.897	602.207	542.976	445.391	582.843	420.939	403.999	481.382	431.650	161.959	575.316	82.286	215.067	517.982	106.051	415.656	456.930	56.166	-64.601	714.478	573.947
0.000	0.000	0.000	108.889	602.235	542.975	445.380	582.923	420.951	404.055	481.445	431.629	161.946	575.298	82.300	215.033	517.988	106.056	415.651	456.938	56.168	-64.576	714.450	573.911
0.000	0.000	0.000	108.937	602.158	542.988	445.403	582.984	420.973	404.036	481.519	431.653	161.987	575.351	82.305	215.048	517.995	106.052	415.678	456.932	56.173	-64.517	714.480	573.936
0.000	0.000	0.000	108.948	602.187	542.987	445.385	583.055	420.989	404.076	481.612	431.630	161.998	575.391	82.312	215.038	518.049	106.072	415.672	456.888	56.200	-64.549	714.479	573.944
0.000	0.000	0.000	108.941	602.216	542.920	445.398	583.124	420.972	404.062	481.725	431.608	162.013	575.432	82.339	215.099	518.097	106.119	415.657	456.985	56.147	-64.512	714.520	573.911
0.000	0.000	0.000	108.983	602.272	542.958	445.410	583.177	420.990	404.073	481.778	431.647	161.965	575.447	82.316	215.103	518.163	106.119	415.629	456.929	56.178	-64.521	714.534	573.918
0.000	0.000	0.000	108.946	602.259	542.919	445.429	583.197	420.955	404.112	481.779	431.663	161.941	575.420	82.312	215.042	518.120	106.114	415.638	456.973	56.190	-64.499	714.505	573.910
0.000	0.000	0.000	108.983	602.283	542.901	445.461	583.224	420.934	404.131	481.809	431.617	161.959	575.433	82.319	215.053	518.093	106.080	415.651	456.960	56.185	-65.409	714.249	574.443
0.000	0.000	0.000	109.061	602.279	542.896	445.492	583.241	420.912	404.202	481.781	431.585	161.937	575.357	82.293	215.056	518.112	106.105	415.693	457.025	56.184	-65.416	714.166	574.457
0.000	0.000	0.000	109.037	602.331	542.864	445.474	583.260	420.859	404.260	481.780	431.562	161.946	575.316	82.326	215.087	518.028	106.095	415.681	456.986	56.215	-65.408	714.123	574.488
0.000	0.000	0.000	109.086	602.329	542.843	445.508	583.287	420.848	404.283	481.786	431.547	161.943	575.336	82.310	215.053	518.058	106.111	415.684	456.997	56.219	-65.371	714.086	574.442
0.000	0.000	0.000	109.100	602.373	542.830	445.560	583.297	420.834	404.299	481.792	431.494	161.985	575.355	82.314	215.041	518.021	106.144	415.694	457.009	56.223	-65.388	714.078	574.517
0.000	0.000	0.000	109.132	602.340	542.824	445.565	583.269	420.797	404.300	481.822	431.503	161.979	575.417	82.300	215.084	518.135	106.064	415.692	457.017	56.246	-65.385	714.103	574.488
0.000	0.000	0.000	109.146	602.448	542.796	445.612	583.274	420.783	404.345	481.814	431.477	161.976	575.424	82.320	215.097	518.130	106.163	415.704	457.058	56.252	-65.317	714.120	574.491
0.000	0.000	0.000	109.180	602.440	542.754	445.629	583.230	420.782	404.343	481.827	431.461	161.938	575.431	82.307	215.030	518.115	106.152	415.675	456.997	56.241	-65.379	714.106	574.527
0.000	0.000	0.000	109.200	602.504	542.704	445.665	583.175	420.726	404.395	481.772	431.430	161.950	575.440	82.349	215.060	518.123	106.163	415.647	457.062	56.207	-65.297	714.065	574.511
0.000	0.000	0.000	109.310	602.451	542.691	445.706	583.151	420.762	404.438	481.672	431.430	161.977	575.407	82.321	215.053	518.084	106.144	415.693	457.028	56.208	-65.279	714.041	574.522
0.000	0.000	0.000	109.306	602.512	542.514	445.714	583.085	420.713	404.473	481.585	431.394	161.961	575.353	82.340	215.130	518.008	106.112	415.672	456.960	56.232	-65.209	713.991	574.521
0.000	0.000	0.000	109.356	602.501	542.515	445.763	583.027	420.742	404.511	481.530	431.387	161.989	575.358	82.363	215.144	518.056	106.116	415.682	457.000	56.214	-65.175	713.971	574.529
0.000	0.000	0.000	109.361	602.578	542.485	445.746	582.971	420.706	404.509	481.480	431.408	161.998	575.375	82.325	215.121	518.056	106.114	415.660	456.937	56.216	-65.136	713.993	574.451
0.000	0.000	0.000	109.446	602.551	542.407	445.773	582.886	420.683	404.514	481.446	431.370	161.955	575.431	82.322	215.070	518.082	106.156	415.666	456.991	56.200	-65.110	714.025	574.457
0.000	0.000	0.000	109.443	602.607	542.393	445.797	582.807	420.670	404.461	481.441	431.344	162.009	575.487	82.328	215.090	518.117	106.093	415.632	456.955	56.192	-65.128	714.023	574.442
0.000	0.000	0.000	109.478	602.596	542.357	445.809	582.721	420.674	404.490	481.355	431.347	161.966	575.433	82.324	215.133	518.109	106.141	415.615	456.951	56.170	-65.047	714.101	574.358
0.000	0.000	0.000	109.593	602.551	542.358	445.810	582.645	420.673	404.519	481.241	431.357	161.972	575.392	82.356	215.104	518.086	106.116	415.665	456.979	56.178	-65.041	714.046	574.336
0.000	0.000	0.000	109.554	602.589	542.302	445.878	582.546	420.677	404.578	481.101	431.340	161.948	575.403	82.382	215.114	518.028	106.093	415.674	456.964	56.177	-65.007	714.040	574.276
0.000	0.000	0.000	109.568	602.600	542.261	445.862	582.454	420.666	404.607	480.973	431.338	162.021	575.355	82.360	215.063	517.968	106.164	415.667	456.917	56.184	-64.969	713.988	574.186
0.000	0.000	0.000	109.599	602.618	542.257	445.868	582.328	420.649	404.581	480.853	431.307	162.017	575.364	82.432	215.177	517.983	106.114	415.657	456.910	56.166	-64.978	713.994	574.152
0.000	0.000	0.000	109.626	602.657	542.195	445.962	582.244	420.669	404.580	480.772	431.291	162.031	575.368	82.408	215.067	517.971	106.142	415.686	456.890	56.173	-64.927	714.010	574.062
0.000	0.000	0.000	109.661	602.598	542.168	446.007	582.127	420.686	404.624	480.672	431.266	162.030	575.398	82.379	215.121	518.010	106.121	415.655	456.901	56.164	-64.953	714.037	573.944
0.000	0.000	0.000	109.649	602.651	542.092	446.009	582.019	420.654	404.581	480.590	431.240	162.047	575.400	82.450	215.126	518.027	106.206	415.652	456.842	56.165	-64.984	714.043	573.867
0.000	0.000	0.000	109.632	602.692	542.065	446.068	581.887	420.685	404.595	480.503	431.181	162.012	575.450	82.422	215.059	518.031	106.164	415.622	456.891	56.136	-64.881	714.041	573.763
0.000	0.000	0.000	109.720	602.655	542.024	446.114	581.779	420.648	404.628	480.344	431.166	162.016	575.432	82.422	215.109	518.017	106.136	415.601	456.802	56.148	-64.945	714.020	573.639
0.000	0.000	0.000	109.684	602.720	541.912	446.174	581.649	420.650	404.670	480.216	431.147	162.004	575.374	82.449	215.107	517.960	106.169	415.651	456.823	56.119	-64.965	714.005	573.470
0.000	0.000	0.000	109.664	602.709	541.827	446.199	581.521	420.649	404.628	480.075	431.144	162.073	575.367	82.455	215.075	517.877	106.186	415.656	456.794	56.095	-64.942	713.926	573.310
0.000	0.000	0.000	109.686	602.728	541.707	446.237	581.434	420.618	404.679	479.922	431.126	162.042	575.313	82.464	215.096	517.874	106.110	415.637	456.760	56.089	-64.965	713.878	573.120
0.000	0.000	0.000	109.728	602.699	541.649	446.255	581.324	420.627	404.661	479.836	431.114	162.082	575.323	82.454	215.090	517.845	106.138	415.640	456.739	56.070	-65.002	713.863	572.990
0.000	0.000	0.000	109.708	602.796	541.514	446.297	581.238	420.610	404.695	479.732	431.084	162.074	575.372	82.454	215.116	517.883	106.116	415.623	456.762	56.069	-64.932	713.922	572.778
0.000	0.000	0.000	109.703	602.843	541.380	446.282	581.182	420.538	404.649	479.746	431.052	162.059	575.378	82.505	215.031	517.918	106.161	415.610	456.713	56.079	-64.968	713.951	572.562
0.000	0.000	0.000	109.719	602.862	541.257	446.350	581.108	420.547	404.679	479.679	431.045	162.052	575.393	82.492	215.183	517.950	106.082	415.590	456.788	56.059	-64.949	713.960	572.391
0.000	0.000	0.000	109.721	602.909	541.087	446.316	581.042	420.490	404.698	479.629	431.013	162.077	575.419	82.466	215.075	517.940	106.135	415.620	456.778	56.065	-64.897	714.031	572.197
0.000	0.000	0.000	109.665	602.981	540.884	446.361	581.020	420.483	404.731	479.562	431.008	162.061	575.376	82.446	215.171	517.885	106.095	415.611	456.757	56.047	-64.852	714.050	571.991
0.000	0.000	0.000	109.694	603.068	540.691	446.366	581.012	420.439	404.741	479.530	430.990	162.071	575.364	82.457	215.165	517.888	106.037	415.614	456.735	55.992	-64.847	714.093	571.725
0.000	0.000	0.000	109.620	603.133	540.461	446.377	581.018	420.431	404.758	479.532	430.949	162.084	575.392	82.437	215.124	517.841	106.095	415.601	456.745	56.070	-64.864	714.079	571.572
0.000	0.000	0.000	109.712	603.070	540.343	446.398	581.050	420.435	404.715	479.575	430.932	162.061	575.363	82.384	215.122	517.889	106.064	415.620	456.762	56.066	-64.926	714.135	571.358
0.000	0.000	0.000	109.679	603.127	540.138	446.387	581.089	420.390	404.731	479.631	430.929	162.078	575.432	82.396	215.171	517.943	106.068	415.621	456.751	56.091	-64.910	714.238	571.143
0.000	0.000	0.000	109.700	603.138	539.967	446.355	581.149	420.394	404.673	479.714	430.928	162.069	575.457	82.371	215.192	517.994	106.039	415.628	456.794	56.086	-64.953	714.279	570.981
0.000	0.000	0.000	109.654	603.158	539.812	446.360	581.225	420.443	404.654	479.812	430.906	162.051	575.447	82.353	215.221	518.034	106.059	415.622	456.810	56.106	-65.023	714.306	570.814
0.000	0.000	0.000	109.586	603.263	539.571	446.363	581.290	420.440	404.628	479.874	430.892	162.067	575.531	82.372	215.100	517.994	106.132	415.626	456.825	56.121	-65.072	714.307	570.637
0.000	0.000	0.000	109.545	603.254	539.498	446.354	581.411	420.453	404.627	479.964	430.868	162.038	575.459	82.354	215.153	518.010	106.056	415.641	456.819	56.112	-65.162	714.260	570.504
0.000	0.000	0.000	109.555	603.270	539.361	446.291	581.496	420.437	404.643	480.018	430.893	162.014	575.454	82.364	215.155	517.996	106.101	415.649	456.815	56.122	-65.225	714.233	570.329
0.000	0.000	0.000	109.550	603.275	539.254	446.267	581.585	420.428	404.623	480.126	430.892	162.030	575.443	82.307	215.116	518.021	106.082	415.641	456.835	56.144	-65.277	714.247	570.177
0.000	0.000	0.000	109.469	603.313	539.127	446.245	581.703	420.435	404.603	480.242	430.916	162.036	575.437	82.373	215.177	518.052	106.057	415.627	456.799	56.158	-65.244	714.330	569.980
0.000	0.000	0.000	109.441	603.344	538.985	446.191	581.820	420.457	404.534	480.383	430.930	161.974	575.451	82.332	215.186	518.089	106.085	415.632	456.877	56.159	-65.283	714.464	569.854
0.000	0.000	0.000	109.405	603.369	538.766	446.144	581.925	420.442	404.472	480.585	430.900	162.051	575.527	82.385	215.146	518.111	106.092	415.682	456.882	56.171	-65.292	714.538	569.652
0.000	0.000	0.000	109.372	603.375	538.640	446.119	582.072	420.471	404.479	480.678	430.965	162.000	575.499	82.310	215.173	518.122	106.098	415.657	456.929	56.182	-65.392	714.621	569.491
0.000	0.000	0.000	109.322	603.483	538.460	446.065	582.183	420.461	404.420	480.826	430.959	162.054	575.506	82.298	215.151	518.148	106.137	415.647	456.933	56.186	-65.427	714.696	569.345
0.000	0.000	0.000	109.287	603.401	538.336	445.973	582.302	420.439	404.400	480.945	430.985	162.003	575.544	82.304	215.104	518.161	106.125	415.652	456.963	56.180	-65.501	714.739	569.237
0.000	0.000	0.000	109.205	603.492	538.165	445.892	582.418	420.449	404.336	481.047	431.029	162.032	575.562	82.263	215.196	518.145	106.058	415.677	456.963	56.218	-65.517	714.763	569.155
0.000	0.000	0.000	109.255	603.424	538.053	445.892	582.547	420.504	404.340	481.101	431.067	162.019	575.499	82.292	215.117	518.166	106.071	415.695	456.954	56.239	-65.604	714.821	569.069
0.000	0.000	0.000	109.091	603.581	537.868	445.839	582.659	420.519	404.265	481.215	431.096	161.994	575.509	82.295	215.154	518.181	106.052	415.662	456.997	56.287	-65.647	714.861	568.968
0.000	0.000	0.000	109.002	603.669	537.730	445.711	582.765	420.507	404.197	481.351	431.124	161.971	575.538	82.240	215.106	518.220	106.149	415.644	456.959	56.299	-65.724	714.964	568.870
0.000	0.000	0.000	108.921	603.697	537.535	445.668	582.862	420.533	404.135	481.430	431.168	161.973	575.612	82.240	215.086	518.241	106.060	415.652	456.999	56.325	-65.800	715.042	568.738
0.000	0.000	0.000	108.938	603.731	537.458	445.597	582.932	420.543	404.063	481.533	431.205	161.920	575.607	82.253	215.065	518.307	106.075	415.668	457.083	56.364	-65.819	715.144	568.649
0.000	0.000	0.000	108.794	603.797	537.325	445.552	583.011	420.581	404.006	481.610	431.233	161.906	575.599	82.240	215.081	518.333	106.087	415.655	457.106	56.360	-65.886	715.189	568.511
0.000	0.000	0.000	108.743	603.802	537.273	445.468	583.050	420.580	403.969	481.651	431.257	161.920	575.572	82.196	215.144	518.306	106.049	415.657	457.100	56.380	-65.909	715.256	568.426
0.000	0.000	0.000	108.750	603.861	537.178	445.397	583.090	420.629	403.903	481.658	431.316	161.936	575.632	82.209	215.057	518.270	106.084	415.628	457.062	56.437	-65.995	715.256	568.350
0.000	0.000	0.000	108.651	603.920	537.091	445.357	583.115	420.706	403.832	481.644	431.380	161.988	575.638	82.191	215.037	518.327	106.063	415.664	457.063	56.462	-66.003	715.301	568.270
0.000	0.000	0.000	108.611	603.922	537.072	445.272	583.104	420.706	403.752	481.686	431.435	161.848	575.565	82.250	214.994	518.288	106.127	415.628	457.072	56.464	-66.040	715.381	568.194
0.000	0.000	0.000	108.587	603.883	537.018	445.233	583.112	420.765	403.708	481.630	431.450	161.874	575.575	82.212	215.000	518.312	106.102	415.619	457.050	56.483	-66.111	715.433	568.129
0.000	0.000	0.000	108.513	603.905	536.932	445.155	583.061	420.795	403.605	481.612	431.481	161.865	575.587	82.254	214.987	518.294	106.099	415.596	457.098	56.458	-66.101	715.467	568.031
0.000	0.000	0.000	108.560	603.874	536.909	445.100	583.007	420.815	403.523	481.556	431.493	161.869	575.642	82.209	214.985	518.314	106.093	415.592	457.155	56.483	-66.172	715.545	567.967
0.000	0.000	0.000	108.427	603.962	536.775	445.027	582.928	420.829	403.435	481.527	431.538	161.866	575.597	82.243	214.971	518.306	106.134	415.588	457.143	56.500	-66.210	715.595	567.878
0.000	0.000	0.000	108.396	603.947	536.728	444.986	582.849	420.898	403.383	481.408	431.562	161.834	575.583	82.228	214.918	518.269	106.133	415.578	457.065	56.503	-66.174	715.628	567.814
0.000	0.000	0.000	108.376	603.980	536.652	444.920	582.737	420.916	403.301	481.332	431.570	161.815	575.525	82.231	214.909	518.250	106.104	415.580	457.008	56.513	-66.228	715.646	567.755
0.000	0.000	0.000	108.318	604.000	536.609	444.892	582.645	420.935	403.198	481.157	431.600	161.832	575.527	82.237	214.934	518.219	106.118	415.560	457.004	56.493	-66.267	715.638	567.676
0.000	0.000	0.000	108.321	603.980	536.544	444.899	582.534	421.032	403.133	481.030	431.608	161.795	575.528	82.207	215.019	518.232	106.080	415.580	457.043	56.499	-66.260	715.685	567.571
0.000	0.000	0.000	108.320	603.971	536.510	444.820	582.402	421.033	403.052	480.971	431.576	161.833	575.517	82.253	214.852	518.152	106.089	415.543	457.069	56.498	-66.239	715.711	567.507
0.000	0.000	0.000	108.339	603.950	536.432	444.809	582.292	421.074	402.976	480.877	431.619	161.852	575.567	82.226	214.852	518.173	106.087	415.518	456.953	56.541	-66.288	715.767	567.418
0.000	0.000	0.000	108.280	604.014	536.349	444.787	582.162	421.070	402.947	480.749	431.643	161.802	575.556	82.226	214.866	518.178	106.100	415.515	456.958	56.528	-66.346	715.799	567.369
0.000	0.000	0.000	108.347	603.953	536.337	444.777	582.055	421.098	402.932	480.673	431.609	161.800	575.555	82.254	214.845	518.214	106.052	415.493	456.957	56.514	-66.266	715.847	567.252
0.000	0.000	0.000	108.288	604.017	536.232	444.728	581.946	421.098	402.852	480.560	431.621	161.816	575.595	82.234	214.834	518.136	106.074	415.531	456.978	56.491	-66.317	715.836	567.188
0.000	0.000	0.000	108.326	603.968	536.168	444.763	581.840	421.101	402.836	480.448	431.631	161.793	575.524	82.284	214.839	518.165	106.066	415.484	456.894	56.475	-66.245	715.871	567.043
0.000	0.000	0.000	108.324	604.017	536.096	444.755	581.722	421.113	402.861	480.343	431.620	161.842	575.507	82.275	214.853	518.108	106.056	415.487	456.932	56.438	-66.228	715.887	566.909
0.000	0.000	0.000	108.311	604.022	535.910	444.807	581.655	421.162	402.891	480.225	431.620	161.855	575.484	82.310	214.828	518.071	106.102	415.490	456.840	56.419	-66.150	715.877	566.824
0.000	0.000	0.000	108.327	603.986	535.812	444.792	581.549	421.122	402.892	480.155	431.596	161.870	575.505	82.286	214.831	518.022	106.064	415.528	456.886	56.409	-66.118	715.880	566.664
0.000	0.000	0.000	108.334	603.997	535.684	444.846	581.484	421.115	402.906	480.112	431.553	161.844	575.501	82.269	214.892	518.040	106.046	415.519	456.870	56.363	-66.192	715.884	566.479
0.000	0.000	0.000	108.355	604.011	535.603	444.919	581.419	421.130	402.904	480.049	431.586	161.905	575.519	82.296	214.923	518.069	106.010	415.505	456.855	56.347	-66.183	715.911	566.446
0.000	0.000	0.000	108.381	604.038	535.486	444.956	581.339	421.126	402.938	479.974	431.571	161.877	575.491	82.324	214.883	518.058	106.043	415.543	456.822	56.304	-66.179	715.893	566.302
0.000	0.000	0.000	108.456	603.941	535.397	445.035	581.273	421.139	402.971	479.937	431.560	161.958	575.515	82.370	214.904	518.024	106.073	415.526	456.831	56.237	-66.147	715.879	566.151
0.000	0.000	0.000	108.506	603.932	535.280	445.062	581.252	421.109	403.014	479.888	431.545	161.946	575.506	82.319	214.905	518.016	106.036	415.548	456.802	56.196	-66.072	715.843	566.096
0.000	0.000	0.000	108.550	603.854	535.208	445.125	581.203	421.068	403.113	479.826	431.525	161.955	575.471	82.300	214.938	517.952	106.075	415.568	456.788	56.171	-66.035	715.788	566.033
0.000	0.000	0.000	108.647	603.794	535.151	445.184	581.221	421.057	403.203	479.774	431.483	162.001	575.459	82.337	214.962	517.996	106.057	415.579	456.766	56.149	-65.988	715.750	565.960
0.000	0.000	0.000	108.658	603.851	534.978	445.216	581.174	420.943	403.221	479.760	431.437	162.004	575.488	82.383	214.997	517.991	106.022	415.590	456.726	56.101	-66.016	715.720	565.890
0.000	0.000	0.000	108.723	603.800	534.918	445.301	581.195	420.902	403.226	479.752	431.428	161.978	575.476	82.370	214.986	518.049	106.050	415.558	456.693	56.139	-65.983	715.738	565.811
0.000	0.000	0.000	108.787	603.770	534.885	445.377	581.152	420.888	403.323	479.782	431.361	162.022	575.555	82.364	215.012	518.048	106.066	415.585	456.730	56.110	-65.913	715.703	565.773
0.000	0.000	0.000	108.872	603.700	534.815	445.422	581.171	420.850	403.322	479.820	431.295	161.999	575.512	82.368	215.004	518.065	106.133	415.577	456.755	56.092	-65.938	715.704	565.744
0.000	0.000	0.000	108.902	603.734	534.756	445.438	581.159	420.815	403.381	479.803	431.283	162.028	575.534	82.377	214.954	518.061	106.088	415.562	456.753	56.080	-65.913	715.678	565.698
0.000	0.000	0.000	108.896	603.736	534.714	445.512	581.147	420.821	403.453	479.747	431.289	162.041	575.545	82.379	214.956	518.041	106.080	415.608	456.741	56.092	-65.873	715.614	565.646
0.000	0.000	0.000	109.002	603.630	534.690	445.522	581.127	420.752	403.500	479.721	431.229	161.985	575.490	82.357	215.014	518.030	106.060	415.588	456.759	56.104	-65.815	715.552	565.599
0.000	0.000	0.000	109.015	603.561	534.666	445.563	581.126	420.750	403.509	479.723	431.161	162.018	575.468	82.380	215.020	517.969	106.102	415.594	456.744	56.083	-65.787	715.472	565.540
0.000	0.000	0.000	109.085	603.511	534.633	445.580	581.107	420.727	403.596	479.660	431.175	161.980	575.448	82.325	215.023	518.018	106.071	415.537	456.686	56.108	-65.781	715.426	565.479
0.000	0.000	0.000	109.107	603.471	534.596	445.614	581.113	420.731	403.571	479.675	431.114	161.994	575.500	82.390	215.036	518.026	106.104	415.591	456.766	56.106	-65.788	715.381	565.453
0.000	0.000	0.000	109.080	603.441	534.551	445.630	581.101	420.695	403.615	479.662	431.129	161.997	575.511	82.311	215.024	518.047	106.120	415.585	456.780	56.120	-65.769	715.388	565.336
0.000	0.000	0.000	109.132	603.299	534.577	445.626	581.049	420.688	403.555	479.691	431.085	161.999	575.569	82.302	215.050	518.136	106.002	415.591	456.806	56.127	-65.805	715.327	565.306
0.000	0.000	0.000	109.152	603.264	534.537	445.649	581.037	420.686	403.571	479.664	431.048	162.043	575.658	82.271	215.119	518.161	106.040	415.600	456.803	56.135	-65.795	715.309	565.254
0.000	0.000	0.000	109.133	603.217	534.513	445.643	580.989	420.716	403.589	479.600	431.046	162.006	575.563	82.329	215.074	518.107	106.039	415.574	456.783	56.123	-65.758	715.240	565.216
0.000	0.000	0.000	109.079	603.183	534.475	445.673	580.943	420.693	403.591	479.495	431.048	161.998	575.534	82.296	215.082	518.084	106.055	415.610	456.779	56.141	-65.721	715.173	565.253
0.000	0.000	0.000	109.094	603.082	534.500	445.645	580.862	420.727	403.566	479.422	431.041	161.998	575.457	82.352	215.011	518.024	106.010	415.622	456.767	56.153	-65.742	715.122	565.124
0.000	0.000	0.000	109.070	603.040	534.489	445.653	580.813	420.745	403.534	479.360	431.071	161.994	575.510	82.300	215.102	518.039	106.041	415.586	456.731	56.174	-65.768	715.055	565.220
0.000	0.000	0.000	109.026	603.006	534.484	445.618	580.737	420.729	403.521	479.326	431.024	161.982	575.507	82.312	214.998	518.012	106.029	415.586	456.741	56.180	-65.763	715.049	565.141
0.000	0.000	0.000	109.009	602.977	534.466	445.586	580.680	420.738	403.465	479.270	431.076	162.001	575.529	82.313	215.091	518.058	106.010	415.563	456.777	56.196	-65.770	715.063	565.149
0.000	0.000	0.000	109.012	602.948	534.457	445.554	580.578	420.752	403.409	479.260	431.052	161.948	575.539	82.335	215.009	518.055	106.054	415.539	456.788	56.162	-65.757	715.093	565.132
0.000	0.000	0.000	108.946	602.878	534.468	445.526	580.489	420.778	403.391	479.180	431.051	161.959	575.535	82.319	215.048	518.084	105.989	415.532	456.780	56.170	-65.778	715.054	565.213
0.000	0.000	0.000	108.980	602.783	534.477	445.505	580.413	420.790	403.359	479.082	431.062	161.975	575.514	82.338	215.020	518.013	106.014	415.532	456.754	56.162	-65.782	715.087	565.140
0.000	0.000	0.000	108.962	602.792	534.468	445.479	580.315	420.825	403.359	478.953	431.080	162.011	575.502	82.327	214.965	517.912	106.053	415.558	456.732	56.165	-65.766	714.972	565.239
0.000	0.000	0.000	109.012	602.723	534.495	445.413	580.210	420.830	403.349	478.863	431.096	161.987	575.446	82.339	214.977	517.888	105.985	415.517	456.634	56.162	-65.785	714.960	565.171
0.000	0.000	0.000	109.006	602.652	534.500	445.386	580.130	420.824	403.309	478.750	431.072	161.969	575.455	82.380	214.983	517.864	106.001	415.554	456.672	56.173	-65.785	714.912	565.264
0.000	0.000	0.000	108.980	602.674	534.513	445.349	580.030	420.852	403.306	478.698	431.094	161.942	575.439	82.323	215.037	517.909	105.982	415.534	456.690	56.152	-65.759	714.936	565.255
0.000	0.000	0.000	109.001	602.588	534.512	445.309	579.966	420.822	403.236	478.662	431.097	161.959	575.476	82.347	214.918	517.870	106.014	415.529	456.702	56.175	-65.766	714.937	565.314
0.000	0.000	0.000	108.991	602.551	534.540	445.296	579.874	420.853	403.200	478.597	431.108	161.922	575.506	82.324	214.913	517.930	106.023	415.535	456.709	56.190	-65.815	714.911	565.330
0.000	0.000	0.000	108.949	602.537	534.524	445.266	579.802	420.876	403.163	478.550	431.076	161.953	575.535	82.332	214.889	517.931	106.045	415.497	456.730	56.210	-65.803	714.925	565.347
0.000	0.000	0.000	109.001	602.456	534.552	445.251	579.747	420.892	403.094	478.477	431.069	161.916	575.504	82.319	214.864	517.882	106.032	415.508	456.728	56.215	-65.797	714.846	565.386
0.000	0.000	0.000	108.963	602.437	534.543	445.238	579.662	420.913	403.099	478.341	431.065	161.933	575.507	82.316	214.965	517.884	105.982	415.488	456.704	56.234	-65.782	714.799	565.374
0.000	0.000	0.000	108.972	602.382	534.550	445.238	579.591	420.922	403.065	478.265	431.059	161.954	575.454	82.310	214.898	517.850	105.933	415.518	456.686	56.276	-65.737	714.697	565.395
0.000	0.000	0.000	108.983	602.349	534.557	445.205	579.512	420.888	403.026	478.204	431.043	161.904	575.443	82.284	214.919	517.798	105.976	415.498	456.679	56.271	-65.781	714.645	565.446
0.000	0.000	0.000	109.013	602.242	534.570	445.182	579.448	420.934	402.988	478.170	431.022	161.895	575.466	82.289	214.881	517.846	105.938	415.512	456.674	56.298	-65.775	714.610	565.449
0.000	0.000	0.000	109.048	602.164	534.614	445.180	579.448	420.962	402.965	478.140	431.041	161.878	575.458	82.297	214.837	517.827	105.959	415.475	456.717	56.264	-65.751	714.584	565.502
0.000	0.000	0.000	109.010	602.148	534.590	445.127	579.370	420.970	402.927	478.137	431.041	161.907	575.535	82.303	214.865	517.897	105.952	415.465	456.705	56.268	-65.780	714.556	565.492
0.000	0.000	0.000	108.995	602.105	534.562	445.127	579.370	420.970	402.894	478.126	431.049	161.895	575.517	82.284	214.830	517.883	105.943	415.478	456.692	56.252	-65.780	714.483	565.525
0.000	0.000	0.000	109.016	602.010	534.582	445.132	579.333	420.960	402.911	478.061	431.060	161.880	575.478	82.313	214.838	517.856	106.016	415.487	456.686	56.269	-65.825	714.430	565.522
0.000	0.000	0.000	109.040	601.954	534.603	445.145	579.332	420.963	402.917	478.035	431.078	161.925	575.477	82.296	214.892	517.817	105.946	415.476	456.690	56.245	-65.765	714.388	565.553
0.000	0.000	0.000	109.065	601.901	534.611	445.136	579.324	420.959	402.936	478.019	431.065	161.942	575.478	82.313	214.868	517.797	105.976	415.489	456.671	56.247	-65.752	714.300	565.550
0.000	0.000	0.000	109.030	601.846	534.607	445.170	579.349	420.977	402.959	477.999	431.061	161.933	575.430	82.329	214.902	517.838	105.988	415.517	456.670	56.230	-65.748	714.281	565.529
0.000	0.000	0.000	109.015	601.865	534.584	445.139	579.339	420.993	402.981	477.980	431.064	161.925	575.458	82.328	214.927	517.792	105.949	415.529	456.670	56.216	-65.765	714.271	565.508
0.000	0.000	0.000	109.044	601.811	534.579	445.141	579.341	420.965	402.958	478.028	431.053	161.965	575.498	82.348	214.935	517.816	105.938	415.505	456.686	56.240	-65.799	714.215	565.476
0.000	0.000	0.000	109.026	601.758	534.613	445.166	579.370	420.995	403.015	478.050	431.045	161.920	575.508	82.312	214.885	517.846	105.977	415.488	456.732	56.243	-65.789	714.191	565.524
0.000	0.000	0.000	109.042	601.716	534.599	445.190	579.388	420.970	403.032	478.059	430.979	161.907	575.490	82.336	214.852	517.849	106.003	415.486	456.626	56.265	-65.782	714.142	565.485
0.000	0.000	0.000	109.084	601.624	534.638	445.182	579.380	420.946	403.058	478.075	430.986	161.904	575.521	82.317	214.905	517.880	106.016	415.502	456.747	56.251	-65.802	714.117	565.485
0.000	0.000	0.000	109.085	601.585	534.606	445.192	579.408	420.916	403.137	478.044	430.991	161.909	575.458	82.324	214.938	517.863	105.968	415.515	456.718	56.302	-65.794	714.006	565.392
0.000	0.000	0.000	109.106	601.494	534.619	445.251	579.413	420.939	403.170	478.058	430.969	161.887	575.440	82.320	214.893	517.822	106.009	415.526	456.697	56.283	-65.778	713.954	565.346
0.000	0.000	0.000	109.125	601.451	534.613	445.250	579.417	420.885	403.208	478.045	430.948	161.926	575.457	82.322	214.967	517.820	105.939	415.504	456.708	56.274	-65.773	713.886	565.324
0.000	0.000	0.000	109.101	601.428	534.589	445.258	579.434	420.861	403.241	478.067	430.911	161.918	575.471	82.352	214.939	517.847	105.962	415.524	456.740	56.287	-65.782	713.846	565.292
0.000	0.000	0.000	109.079	601.401	534.586	445.261	579.435	420.871	403.256	478.070	430.902	161.937	575.522	82.296	214.921	517.875	105.963	415.511	456.674	56.295	-65.795	713.782	565.234
0.000	0.000	0.000	110.537	599.641	535.238	445.344	579.480	420.886	403.290	478.093	430.885	161.899	575.523	82.362	214.875	517.873	105.987	415.517	456.779	56.295	-65.828	713.701	565.203
0.000	0.000	0.000	110.516	599.642	535.206	445.309	579.455	420.843	403.297	478.103	430.865	161.962	575.564	82.360	214.933	517.893	106.033	415.517	456.792	56.276	-65.798	713.653	565.139
0.000	0.000	0.000	109.211	601.095	534.559	445.371	579.440	420.841	403.354	478.073	430.851	161.947	575.512	82.298	215.002	517.962	105.993	415.520	456.794	56.306	-65.807	713.602	565.067
0.000	0.000	0.000	109.177	601.123	534.455	445.399	579.410	420.838	403.417	478.044	430.818	161.919	575.568	82.299	214.992	517.932	105.973	415.531	456.787	56.307	-65.860	713.504	565.027
0.000	0.000	0.000	109.176	601.048	534.404	445.431	579.415	420.831	403.418	478.005	430.811	161.922	575.507	82.327	214.909	517.948	105.993	415.535	456.779	56.314	-65.809	713.457	564.989
0.000	0.000	0.000	110.585	599.353	535.120	445.435	579.378	420.798	403.412	477.972	430.757	161.894	575.513	82.311	214.951	517.890	105.960	415.530	456.784	56.327	-65.818	713.338	564.942
0.000	0.000	0.000	109.173	600.913	534.366	445.456	579.367	420.769	403.436	477.931	430.706	161.977	575.489	82.303	214.994	517.895	105.983	415.528	456.740	56.312	-65.850	713.270	564.847
0.000	0.000	0.000	109.162	600.876	534.340	445.454	579.323	420.760	403.471	477.876	430.709	161.869	575.504	82.317	214.948	517.862	105.985	415.528	456.745	56.335	-65.810	713.190	564.826
0.000	0.000	0.000	110.551	599.167	535.022	445.454	579.283	420.745	403.451	477.862	430.675	161.934	575.572	82.300	214.939	517.890	105.969	415.513	456.755	56.331	-65.815	713.172	564.783
0.000	0.000	0.000	110.536	599.118	534.971	445.478	579.250	420.761	403.433	477.856	430.647	161.894	575.543	82.327	214.979	517.932	105.955	415.502	456.785	56.337	-65.852	713.080	564.752
0.000	0.000	0.000	109.214	600.635	534.261	445.487	579.215	420.767	403.427	477.789	430.639	161.924	575.583	82.296	214.964	517.908	105.978	415.515	456.787	56.319	-65.855	713.033	564.688
0.000	0.000	0.000	110.579	598.948	534.986	445.543	579.180	420.788	403.417	477.739	430.624	161.898	575.582	82.292	214.938	517.907	105.958	415.503	456.786	56.341	-65.890	712.946	564.647
0.000	0.000	0.000	110.528	598.943	534.910	445.509	579.114	420.755	403.462	477.647	430.629	161.922	575.564	82.309	214.979	517.885	105.956	415.454	456.735	56.372	-65.642	713.085	564.560
0.000	0.000	0.000	109.284	600.318	534.214	445.500	579.049	420.785	403.460	477.578	430.591	161.922	575.545	82.271	214.981	517.834	105.920	415.485	456.787	56.376	-65.836	712.754	564.560
0.000	0.000	0.000	110.547	598.753	534.838	445.485	578.993	420.771	403.453	477.491	430.575	161.898	575.510	82.294	214.950	517.836	105.932	415.509	456.766	56.383	-65.823	712.672	564.518
0.000	0.000	0.000	110.620	598.576	534.847	445.493	578.933	420.786	403.398	477.439	430.587	161.925	575.521	82.308	214.908	517.841	106.030	415.513	456.756	56.403	-65.861	712.598	564.498
0.000	0.000	0.000	110.499	598.632	534.684	445.466	578.865	420.775	403.411	477.358	430.578	161.922	575.513	82.334	214.955	517.837	105.977	415.502	456.756	56.405	-65.858	712.548	564.494
0.000	0.000	0.000	110.579	598.487	534.673	445.460	578.782	420.798	403.371	477.279	430.577	161.949	575.538	82.334	214.909	517.800	106.033	415.481	456.735	56.388	-65.857	712.492	564.442
0.000	0.000	0.000	110.659	598.359	534.696	445.460	578.700	420.807	403.313	477.244	430.530	161.913	575.553	82.294	214.978	517.892	105.944	415.471	456.755	56.400	-65.911	712.419	564.404
0.000	0.000	0.000	109.203	599.897	533.820	445.471	578.621	420.801	403.360	477.124	430.554	161.911	575.553	82.281	214.929	517.852	105.941	415.473	456.741	56.354	-65.711	712.501	564.299
0.000	0.000	0.000	110.630	598.263	534.492	445.482	578.519	420.809	403.280	477.065	430.538	161.952	575.558	82.301	214.954	517.805	105.933	415.471	456.735	56.344	-65.911	712.240	564.290
0.000	0.000	0.000	110.772	598.061	534.482	445.493	578.458	420.846	403.311	476.935	430.520	161.958	575.583	82.286	214.905	517.791	105.955	415.480	456.714	56.283	-65.937	712.095	564.272
0.000	0.000	0.000	110.677	598.078	534.345	445.496	578.372	420.838	403.300	476.871	430.504	161.966	575.492	82.369	214.999	517.770	105.926	415.497	456.678	56.268	-65.934	712.010	564.224
0.000	0.000	0.000	109.397	599.544	533.554	445.527	578.303	420.874	403.324	476.759	430.526	161.953	575.481	82.317	214.928	517.753	105.954	415.490	456.676	56.307	-65.971	711.888	564.137
0.000	0.000	0.000	109.243	599.670	533.393	445.494	578.224	420.840	403.322	476.736	430.503	161.940	575.510	82.320	215.028	517.782	105.862	415.495	456.687	56.250	-65.990	711.799	564.117
0.000	0.000	0.000	109.286	599.541	533.393	445.521	578.158	420.864	403.327	476.705	430.436	161.952	575.499	82.316	214.941	517.746	105.919	415.501	456.674	56.234	-66.004	711.714	564.088
0.000	0.000	0.000	110.472	598.044	533.838	445.528	578.139	420.856	403.309	476.675	430.431	161.964	575.505	82.331	214.984	517.775	105.887	415.487	456.673	56.204	-66.036	711.598	564.033
0.000	0.000	0.000	109.265	599.458	533.306	445.531	578.118	420.867	403.334	476.636	430.444	161.991	575.517	82.341	214.943	517.777	105.917	415.474	456.671	56.213	-66.070	711.520	563.950
0.000	0.000	0.000	109.271	599.412	533.266	445.534	578.076	420.863	403.306	476.625	430.389	161.966	575.484	82.344	214.967	517.772	105.922	415.504	456.644	56.169	-65.851	711.637	563.862
0.000	0.000	0.000	109.258	599.323	533.264	445.537	578.077	420.873	403.281	476.613	430.353	161.967	575.491	82.345	215.005	517.704	105.930	415.521	456.628	56.208	-66.099	711.274	563.912
0.000	0.000	0.000	109.240	599.271	533.244	445.502	578.078	420.858	403.340	476.564	430.406	161.984	575.447	82.345	214.933	517.682	105.958	415.508	456.625	56.181	-66.113	711.180	563.854
0.000	0.000	0.000	110.727	597.465	534.071	445.483	578.107	420.893	403.362	476.558	430.400	161.955	575.442	82.361	214.964	517.710	105.917	415.522	456.625	56.179	-66.153	711.105	563.806
0.000	0.000	0.000	109.219	599.087	533.221	445.482	578.132	420.897	403.342	476.606	430.379	161.991	575.514	82.341	214.924	517.688	105.982	415.516	456.648	56.203	-66.192	711.046	563.765
0.000	0.000	0.000	110.416	597.581	533.859	445.476	578.179	420.918	403.394	476.623	430.422	161.960	575.511	82.387	215.048	517.736	105.884	415.529	456.664	56.216	-65.985	711.248	563.721
0.000	0.000	0.000	110.586	597.250	533.930	445.481	578.205	420.928	403.376	476.684	430.439	161.983	575.518	82.378	214.992	517.768	105.949	415.537	456.706	56.189	-66.242	710.983	563.750
0.000	0.000	0.000	110.494	597.276	533.747	445.441	578.238	420.912	403.390	476.720	430.427	161.994	575.525	82.341	215.003	517.769	105.940	415.512	456.720	56.199	-66.061	711.149	563.671
0.000	0.000	0.000	110.655	597.082	533.844	445.404	578.284	420.941	403.427	476.729	430.419	161.940	575.492	82.408	214.986	517.765	105.947	415.525	456.738	56.190	-66.051	711.097	563.651
0.000	0.000	0.000	110.492	597.109	533.729	445.416	578.324	420.932	403.437	476.751	430.408	161.983	575.497	82.371	214.979	517.705	105.960	415.560	456.719	56.205	-66.028	711.050	563.650
0.000	0.000	0.000	110.220	597.296	533.585	445.390	578.354	420.921	403.442	476.749	430.388	161.918	575.430	82.372	214.971	517.725	105.977	415.540	456.701	56.198	-66.262	710.731	563.687
0.000	0.000	0.000	110.260	597.121	533.575	445.375	578.398	420.892	403.507	476.735	430.411	161.952	575.477	82.327	215.015	517.729	105.883	415.532	456.717	56.237	-66.255	710.681	563.641
0.000	0.000	0.000	110.339	597.010	533.611	445.383	578.430	420.917	403.471	476.775	430.410	161.926	575.436	82.318	215.011	517.738	105.948	415.529	456.739	56.223	-66.067	710.854	563.574
0.000	0.000	0.000	110.148	597.137	533.488	445.326	578.449	420.865	403.469	476.821	430.403	161.939	575.493	82.367	214.932	517.744	105.954	415.506	456.683	56.258	-66.040	710.826	563.587
0.000	0.000	0.000	110.190	597.046	533.481	445.347	578.474	420.881	403.458	476.856	430.382	161.916	575.528	82.315	214.966	517.817	105.917	415.518	456.777	56.256	-66.233	710.539	563.635
0.000	0.000	0.000	110.428	596.795	533.573	445.351	578.482	420.850	403.479	476.878	430.381	161.947	575.531	82.340	215.003	517.798	105.909	415.491	456.775	56.273	-66.203	710.471	563.660
0.000	0.000	0.000	110.628	596.589	533.744	445.347	578.466	420.811	403.545	476.847	430.390	161.985	575.560	82.310	214.982	517.788	105.898	415.517	456.788	56.252	-65.988	710.566	563.550
0.000	0.000	0.000	110.295	596.896	533.377	445.328	578.484	420.804	403.563	476.839	430.382	161.960	575.506	82.342	214.944	517.745	105.929	415.505	456.723	56.270	-65.964	710.497	563.555
0.000	0.000	0.000	110.724	596.457	533.683	445.362	578.478	420.827	403.615	476.792	430.382	161.940	575.464	82.318	214.980	517.724	105.956	415.512	456.747	56.280	-66.123	710.165	563.588
0.000	0.000	0.000	110.809	596.368	533.696	445.390	578.508	420.794	403.661	476.810	430.369	161.907	575.451	82.360	214.976	517.719	105.926	415.500	456.765	56.252	-66.125	710.022	563.600
0.000	0.000	0.000	110.533	596.599	533.425	445.408	578.491	420.800	403.630	476.832	430.332	161.895	575.477	82.335	214.974	517.734	105.944	415.522	456.734	56.254	-65.869	710.216	563.507
0.000	0.000	0.000	110.816	596.369	533.647	445.427	578.490	420.777	403.698	476.818	430.378	161.978	575.498	82.348	214.991	517.755	105.958	415.535	456.752	56.259	-66.074	709.929	563.575
0.000	0.000	0.000	110.591	596.517	533.348	445.461	578.467	420.769	403.713	476.823	430.319	161.893	575.474	82.359	214.994	517.785	105.925	415.518	456.755	56.230	-66.064	709.882	563.433
0.000	0.000	0.000	110.890	596.303	533.577	445.484	578.463	420.739	403.755	476.783	430.298	161.950	575.516	82.371	215.019	517.797	105.914	415.530	456.759	56.214	-66.036	709.828	563.391
0.000	0.000	0.000	110.699	596.396	533.281	445.572	578.422	420.752	403.799	476.747	430.247	161.967	575.491	82.387	214.988	517.770	105.951	415.498	456.751	56.209	-65.783	709.944	563.285
0.000	0.000	0.000	110.732	596.337	533.231	445.604	578.374	420.729	403.865	476.673	430.201	161.948	575.440	82.409	214.957	517.742	105.959	415.547	456.715	56.171	-65.993	709.615	563.292
0.000	0.000	0.000	110.790	596.310	533.148	445.657	578.350	420.699	403.943	476.616	430.194	161.997	575.467	82.389	215.011	517.686	105.986	415.565	456.716	56.144	-65.958	709.532	563.245
0.000	0.000	0.000	110.731	596.427	533.000	445.733	578.303	420.720	404.022	476.574	430.144	161.996	575.438	82.409	215.072	517.712	105.961	415.558	456.705	56.144	-65.771	709.703	563.082
0.000	0.000	0.000	110.811	596.378	532.958	445.789	578.251	420.667	404.109	476.529	430.097	162.053	575.493	82.447	215.068	517.725	105.925	415.554	456.691	56.108	-65.883	709.452	563.026
0.000	0.000	0.000	111.008	596.217	532.993	445.871	578.196	420.692	404.149	476.457	430.068	162.016	575.472	82.464	215.179	517.697	105.955	415.578	456.675	56.105	-65.663	709.628	562.888
0.000	0.000	0.000	110.920	596.324	532.840	445.982	578.158	420.687	404.209	476.450	430.005	162.014	575.509	82.484	215.125	517.744	105.993	415.579	456.711	56.021	-65.832	709.362	562.851
0.000	0.000	0.000	110.972	596.259	532.783	446.031	578.073	420.647	404.283	476.356	429.976	162.093	575.506	82.476	215.166	517.748	105.964	415.595	456.675	55.967	-65.639	709.534	562.683
0.000	0.000	0.000	111.030	596.209	532.736	446.138	578.013	420.616	404.385	476.257	429.912	162.132	575.504	82.487	215.138	517.721	105.953	415.594	456.680	55.957	-65.603	709.499	562.557
0.000	0.000	0.000	111.049	596.174	532.622	446.175	577.924	420.588	404.447	476.173	429.832	162.088	575.445	82.510	215.131	517.652	106.001	415.567	456.637	55.886	-65.777	709.216	562.469
0.000	0.000	0.000	111.162	596.072	532.647	446.231	577.836	420.549	404.551	476.066	429.823	162.106	575.460	82.468	215.192	517.621	106.001	415.580	456.625	55.870	-65.573	709.365	562.244
0.000	0.000	0.000	111.174	596.045	532.492	446.306	577.730	420.498	404.635	475.936	429.774	162.102	575.406	82.504	215.201	517.638	105.932	415.620	456.597	55.860	-65.818	709.023	562.142
0.000	0.000	0.000	111.141	596.040	532.406	446.400	577.670	420.479	404.704	475.894	429.696	162.123	575.422	82.521	215.286	517.618	105.935	415.608	456.571	55.819	-65.819	708.976	562.014
0.000	0.000	0.000	111.291	595.949	532.360	446.486	577.580	420.436	404.751	475.841	429.657	162.127	575.428	82.531	215.248	517.635	105.926	415.620	456.567	55.817	-65.630	709.159	561.818
0.000	0.000	0.000	111.201	596.007	532.215	446.555	577.545	420.394	404.795	475.790	429.599	162.091	575.441	82.532	215.274	517.659	105.938	415.603	456.585	55.795	-65.657	709.117	561.640
0.000	0.000	0.000	111.198	595.998	532.129	446.623	577.475	420.336	404.835	475.755	429.540	162.149	575.490	82.497	215.239	517.628	105.942	415.591	456.580	55.799	-65.701	709.043	561.495
0.000	0.000	0.000	111.336	595.865	532.172	446.684	577.443	420.339	404.846	475.772	429.488	162.141	575.433	82.511	215.186	517.616	105.978	415.586	456.559	55.799	-65.913	708.826	561.425
0.000	0.000	0.000	111.318	595.876	532.055	446.712	577.425	420.280	404.910	475.656	429.506	162.127	575.441	82.518	215.227	517.604	105.919	415.609	456.539	55.784	-65.960	708.743	561.234
0.000	0.000	0.000	111.298	595.833	531.999	446.733	577.395	420.255	404.944	475.630	429.484	162.170	575.422	82.525	215.255	517.562	105.926	415.607	456.540	55.793	-65.962	708.674	561.136
0.000	0.000	0.000	111.321	595.823	531.953	446.733	577.401	420.225	404.968	475.614	429.463	162.151	575.373	82.506	215.260	517.547	105.887	415.621	456.500	55.787	-65.938	708.632	561.026
0.000	0.000	0.000	111.323	595.818	531.865	446.738	577.417	420.233	404.980	475.642	429.475	162.179	575.399	82.487	215.316	517.524	105.911	415.609	456.527	55.769	-65.991	708.591	560.834
0.000	0.000	0.000	111.330	595.789	531.838	446.732	577.454	420.241	404.976	475.670	429.500	162.200	575.437	82.467	215.318	517.553	105.912	415.596	456.552	55.769	-65.996	708.640	560.721
0.000	0.000	0.000	111.286	595.856	531.757	446.720	577.514	420.246	404.939	475.721	429.504	162.098	575.403	82.475	215.303	517.558	105.952	415.615	456.551	55.784	-65.977	708.667	560.633
0.000	0.000	0.000	111.349	595.787	531.765	446.721	577.560	420.255	404.871	475.837	429.502	162.192	575.499	82.501	215.296	517.620	105.881	415.589	456.516	55.810	-66.009	708.700	560.568
0.000	0.000	0.000	111.159	595.947	531.539	446.658	577.625	420.245	404.920	475.857	429.532	162.135	575.450	82.490	215.212	517.595	105.968	415.595	456.586	55.793	-66.054	708.734	560.490
0.000	0.000	0.000	111.332	595.787	531.615	446.687	577.686	420.273	404.910	475.902	429.505	162.133	575.453	82.486	215.275	517.612	105.898	415.602	456.579	55.804	-65.801	708.972	560.330
0.000	0.000	0.000	111.286	595.882	531.509	446.652	577.782	420.305	404.955	475.971	429.514	162.144	575.395	82.507	215.245	517.603	105.909	415.638	456.560	55.800	-66.080	708.732	560.307
0.000	0.000	0.000	111.111	596.020	531.306	446.638	577.875	420.293	404.917	476.009	429.545	162.185	575.437	82.474	215.305	517.585	105.933	415.639	456.538	55.824	-66.057	708.748	560.215
0.000	0.000	0.000	111.283	595.844	531.449	446.597	577.953	420.286	404.899	476.064	429.569	162.129	575.367	82.491	215.254	517.592	105.883	415.604	456.562	55.838	-66.072	708.788	560.112
0.000	0.000	0.000	111.301	595.887	531.388	446.589	578.043	420.268	404.860	476.198	429.583	162.153	575.424	82.446	215.210	517.624	105.923	415.611	456.589	55.809	-66.143	708.828	560.014
0.000	0.000	0.000	111.238	595.888	531.288	446.557	578.131	420.284	404.812	476.332	429.591	162.168	575.485	82.430	215.296	517.675	105.881	415.591	456.595	55.819	-66.150	708.907	559.938
0.000	0.000	0.000	111.229	595.918	531.255	446.511	578.224	420.267	404.763	476.438	429.613	162.127	575.460	82.472	215.298	517.683	105.905	415.609	456.600	55.840	-66.258	708.944	559.820
0.000	0.000	0.000	110.944	596.178	530.955	446.526	578.336	420.279	404.735	476.540	429.653	162.090	575.490	82.393	215.246	517.724	105.941	415.613	456.612	55.816	-66.285	708.980	559.753
0.000	0.000	0.000	111.005	596.054	530.958	446.478	578.413	420.288	404.709	476.638	429.647	162.109	575.472	82.426	215.240	517.708	105.908	415.605	456.608	55.843	-66.256	709.044	559.643
0.000	0.000	0.000	111.171	595.893	530.959	446.458	578.514	420.272	404.721	476.681	429.657	162.098	575.424	82.375	215.280	517.701	105.900	415.622	456.605	55.816	-66.275	709.016	559.554
0.000	0.000	0.000	110.836	596.189	530.622	446.433	578.614	420.298	404.691	476.794	429.685	162.109	575.398	82.467	215.308	517.671	105.846	415.628	456.607	55.867	-66.353	709.011	559.484
0.000	0.000	0.000	110.852	596.206	530.479	446.377	578.712	420.301	404.682	476.880	429.691	162.085	575.405	82.374	215.256	517.688	105.869	415.611	456.634	55.823	-66.369	709.077	559.374
0.000	0.000	0.000	110.734	596.289	530.372	446.360	578.826	420.321	404.616	477.021	429.724	162.078	575.402	82.430	215.262	517.710	105.868	415.624	456.646	55.857	-66.437	709.124	559.301
0.000	0.000	0.000	110.783	596.269	530.320	446.330	578.954	420.340	404.529	477.162	429.731	162.081	575.436	82.419	215.244	517.748	105.912	415.618	456.678	55.830	-66.482	709.183	559.223
0.000	0.000	0.000	110.708	596.352	530.167	446.267	579.065	420.356	404.539	477.289	429.799	162.039	575.460	82.400	215.225	517.783	105.919	415.641	456.699	55.870	-66.332	709.509	559.037
0.000	0.000	0.000	110.800	596.307	530.181	446.249	579.163	420.380	404.524	477.388	429.813	162.059	575.491	82.325	215.265	517.831	105.916	415.627	456.718	55.891	-66.575	709.332	559.019
0.000	0.000	0.000	110.593	596.488	529.885	446.158	579.285	420.385	404.455	477.497	429.809	162.063	575.504	82.368	215.262	517.840	105.846	415.630	456.741	55.895	-66.600	709.377	558.923
0.000	0.000	0.000	110.525	596.594	529.748	446.106	579.394	420.401	404.471	477.565	429.845	162.069	575.453	82.356	215.267	517.828	105.881	415.602	456.744	55.913	-66.626	709.395	558.896
0.000	0.000	0.000	110.551	596.623	529.751	446.046	579.483	420.385	404.429	477.646	429.875	162.002	575.413	82.336	215.247	517.752	105.977	415.662	456.754	55.974	-66.659	709.467	558.840
0.000	0.000	0.000	110.549	596.674	529.678	445.958	579.575	420.390	404.375	477.739	429.897	162.042	575.460	82.314	215.181	517.764	106.005	415.665	456.754	56.007	-66.687	709.537	558.799
0.000	0.000	0.000	110.530	596.785	529.541	445.908	579.670	420.419	404.355	477.813	429.935	162.100	575.600	82.291	215.218	517.871	105.893	415.645	456.795	56.036	-66.708	709.618	558.753
0.000	0.000	0.000	110.473	596.830	529.500	445.821	579.778	420.398	404.304	477.905	429.952	161.988	575.524	82.315	215.197	517.879	105.911	415.654	456.836	56.070	-66.519	709.939	558.646
0.000	0.000	0.000	110.436	596.864	529.450	445.734	579.869	420.403	404.226	478.012	429.968	161.960	575.530	82.293	215.203	517.925	105.935	415.642	456.863	56.129	-66.591	710.003	558.639
0.000	0.000	0.000	110.389	596.933	529.438	445.673	579.956	420.396	404.169	478.113	429.999	161.967	575.554	82.265	215.183	517.970	105.971	415.662	456.851	56.133	-66.631	710.082	558.604
0.000	0.000	0.000	110.336	597.011	529.343	445.606	580.022	420.399	404.099	478.180	430.022	161.955	575.587	82.273	215.130	517.965	105.920	415.628	456.822	56.169	-66.641	710.113	558.570
0.000	0.000	0.000	110.416	596.936	529.405	445.577	580.070	420.432	404.098	478.196	430.066	161.933	575.564	82.281	215.051	517.945	105.981	415.639	456.908	56.207	-66.696	710.144	558.548
0.000	0.000	0.000	110.257	597.075	529.291	445.498	580.119	420.448	404.017	478.247	430.085	161.907	575.512	82.264	214.996	517.862	105.975	415.648	456.897	56.242	-66.915	709.985	558.520
0.000	0.000	0.000	110.354	597.003	529.337	445.471	580.159	420.493	403.960	478.247	430.093	161.895	575.511	82.218	215.141	517.910	105.939	415.635	456.916	56.273	-66.932	709.992	558.489
0.000	0.000	0.000	110.288	597.029	529.287	445.411	580.179	420.475	403.916	478.286	430.130	161.949	575.552	82.202	215.102	517.932	105.952	415.620	456.945	56.304	-66.788	710.316	558.411
0.000	0.000	0.000	110.186	597.139	529.229	445.389	580.204	420.529	403.843	478.321	430.117	161.914	575.589	82.185	215.037	517.944	105.914	415.607	456.955	56.339	-66.852	710.386	558.406
0.000	0.000	0.000	110.187	597.195	529.258	445.328	580.197	420.551	403.779	478.346	430.174	161.949	575.648	82.170	215.060	517.989	105.944	415.577	457.001	56.362	-66.825	710.465	558.361
0.000	0.000	0.000	109.915	597.371	528.969	445.316	580.197	420.581	403.712	478.358	430.186	161.885	575.655	82.181	215.012	518.024	105.884	415.564	456.988	56.394	-66.880	710.528	558.377
