NO_OF_SAMPLES	28800
FREQUENCY	960
TIME_STAMP	2020-02-08, 11:55:03	228381.22308140
FIRST_SAMPLE	1
DESCRIPTION	Force data in local (force plate) coordinates
DATA_INCLUDED	Force
FORCE_PLATE_TYPE	Amti
FORCE_PLATE_MODEL	Unknown
FORCE_PLATE_NAME	Embedded Force Plate
FORCE_PLATE_CORNER_POSX_POSY_X	0.000000
FORCE_PLATE_CORNER_POSX_POSY_Y	1200.000048
FORCE_PLATE_CORNER_POSX_POSY_Z	0.000000
FORCE_PLATE_CORNER_NEGX_POSY_X	600.000024
FORCE_PLATE_CORNER_NEGX_POSY_Y	1200.000048
FORCE_PLATE_CORNER_NEGX_POSY_Z	0.000000
FORCE_PLATE_CORNER_NEGX_NEGY_X	600.000024
FORCE_PLATE_CORNER_NEGX_NEGY_Y	0.000000
FORCE_PLATE_CORNER_NEGX_NEGY_Z	0.000000
FORCE_PLATE_CORNER_POSX_NEGY_X	0.000000
FORCE_PLATE_CORNER_POSX_NEGY_Y	0.000000
FORCE_PLATE_CORNER_POSX_NEGY_Z	0.000000
FORCE_PLATE_OFFSET_X	-0.787400
FORCE_PLATE_OFFSET_Y	-0.812800
FORCE_PLATE_OFFSET_Z	-56.108600
FORCE_PLATE_LENGTH	1200.150000
FORCE_PLATE_WIDTH	600.202000
Force_X	Force_Y	Force_Z	Moment_X	Moment_Y	Moment_Z	COP_X	COP_Y	COP_Z
-3.616117	-4.565650	1106.961443	-40.716655	113.183856	2.336296	-102.851444	-37.363741	0.000000	
-8.655502	-5.366984	1101.451758	-31.848444	114.395987	1.737362	-104.205764	-29.454372	0.000000	
-8.258690	-5.314304	1100.236072	-32.668042	114.364406	1.680242	-104.311566	-30.233635	0.000000	
-4.272510	-4.700676	1105.754439	-40.373831	113.245008	2.333164	-102.984850	-37.086751	0.000000	
-6.701826	-5.210557	1102.479337	-35.854237	113.957938	2.059433	-103.811470	-33.069078	0.000000	
-12.688661	-6.552141	1095.755455	-24.619002	115.665156	0.921586	-105.695126	-22.944901	0.000000	
-3.820416	-4.916428	1105.579530	-41.150179	113.242059	2.546945	-103.021294	-37.783749	0.000000	
-6.164835	-5.422895	1103.687514	-37.922644	113.827666	2.203487	-103.607958	-34.897061	0.000000	
-12.812982	-6.686340	1095.931223	-24.576461	115.815413	1.083148	-105.809040	-22.895664	0.000000	
-3.368715	-5.176082	1108.001312	-43.389922	112.897691	2.782923	-102.509913	-39.711219	0.000000	
-6.206835	-5.820704	1103.859008	-38.053066	113.857111	2.203172	-103.616524	-34.989696	0.000000	
-12.939864	-6.731254	1096.799316	-24.964414	116.054074	1.210327	-105.937025	-23.229601	0.000000	
-5.443575	-5.766007	1104.549372	-40.250079	113.545195	2.489547	-103.308633	-36.960171	0.000000	
-4.429371	-5.494176	1107.314253	-41.927593	113.567886	2.656835	-103.124527	-38.398628	0.000000	
-11.377788	-6.225731	1099.738625	-29.442287	115.610476	1.715855	-105.332318	-27.267240	0.000000	
-5.255077	-5.496936	1106.284434	-41.929313	113.626252	2.797171	-103.230672	-38.435030	0.000000	
-6.053199	-5.373903	1106.117368	-40.507288	113.751842	2.708368	-103.319201	-37.161353	0.000000	
-13.272902	-6.415698	1098.712732	-28.023117	115.854892	1.570142	-105.555612	-25.990575	0.000000	
-7.912301	-5.479938	1105.783022	-38.096100	114.363507	2.494175	-103.809020	-34.986437	0.000000	
-5.467637	-5.056554	1109.408043	-43.391954	113.827157	3.072582	-103.112578	-39.669772	0.000000	
-12.152227	-6.536275	1101.305689	-31.081402	115.779921	2.021661	-105.297962	-28.702115	0.000000	
-11.887429	-6.006405	1103.558591	-31.853623	115.623511	2.170377	-104.956336	-29.371874	0.000000	
-6.653918	-5.020233	1109.418276	-42.919168	114.098057	3.090493	-103.295820	-39.245094	0.000000	
-10.018378	-5.455184	1107.188051	-36.761318	114.966569	2.677175	-104.116235	-33.738765	0.000000	
-11.832725	-5.739548	1106.160092	-33.661396	115.551759	2.461755	-104.649257	-30.952522	0.000000	
-7.882364	-4.945115	1109.776917	-41.540643	114.402383	3.217684	-103.474807	-37.994308	0.000000	
-8.772313	-5.090795	1110.647210	-39.817025	114.649472	3.077566	-103.571856	-36.405909	0.000000	
-15.592563	-6.572409	1103.064508	-27.333897	116.783923	1.974405	-105.866518	-25.258449	0.000000	
-7.891914	-4.902695	1112.718449	-42.271515	114.639172	3.116775	-103.415668	-38.554991	0.000000	
-8.194435	-4.996872	1112.722609	-41.409989	114.792791	3.260766	-103.538087	-37.775850	0.000000	
-17.325891	-6.635190	1102.381623	-24.276220	117.429813	1.652732	-106.429293	-22.496697	0.000000	
-10.497514	-5.108572	1111.698323	-37.921749	115.287955	2.955983	-103.961932	-34.666511	0.000000	
-9.562858	-5.364611	1113.250268	-39.860390	115.158807	3.172860	-103.749197	-36.347837	0.000000	
-15.150936	-5.863375	1106.529283	-29.009914	116.653007	2.179268	-105.441575	-26.732519	0.000000	
-12.401090	-5.615267	1111.708385	-35.037476	115.992185	2.724633	-104.498390	-32.046181	0.000000	
-7.794595	-4.816566	1116.011467	-43.432662	114.690800	3.428247	-103.163997	-39.488399	0.000000	
-13.471116	-5.450899	1110.329683	-32.366904	116.517462	2.473261	-105.046178	-29.688063	0.000000	
-14.659995	-5.992662	1109.989727	-30.947375	116.702553	2.400749	-105.184764	-28.390655	0.000000	
-7.931226	-4.775771	1117.051466	-43.130477	114.963308	3.395449	-103.305772	-39.183919	0.000000	
-10.099033	-4.930449	1114.640972	-39.169163	115.431682	3.123672	-103.838555	-35.705221	0.000000	
-15.727237	-6.224522	1108.262604	-28.579536	117.015144	2.129512	-105.575480	-26.285361	0.000000	
-9.745952	-4.750306	1115.505207	-39.986641	115.337347	3.179076	-103.691908	-36.420082	0.000000	
-8.590787	-4.869992	1116.536425	-42.398751	114.904713	3.376364	-103.267439	-38.541531	0.000000	
-16.748838	-6.057287	1107.230703	-26.770772	117.445382	1.949701	-106.009941	-24.683983	0.000000	
-13.468076	-5.453467	1113.101447	-33.226891	116.480543	2.622268	-104.753547	-30.388635	0.000000	
-8.325493	-4.690896	1117.748384	-43.216179	114.900518	3.450542	-103.165885	-39.240930	0.000000	
-14.667687	-5.684577	1111.028665	-30.988946	116.792612	2.314158	-105.167811	-28.417842	0.000000	
-17.054669	-6.369879	1107.751523	-26.599408	117.656473	1.986480	-106.135537	-24.502230	0.000000	
-9.302837	-4.566981	1116.542019	-41.536740	115.179285	3.252076	-103.477056	-37.784533	0.000000	
-10.627479	-5.285145	1114.296052	-39.257403	115.551479	3.032414	-103.951353	-35.777350	0.000000	
-18.512579	-6.735590	1105.681552	-24.448014	117.785564	1.767280	-106.375531	-22.582260	0.000000	
-10.399336	-5.191539	1114.123460	-40.205564	115.547407	3.174675	-103.975170	-36.638519	0.000000	
-9.741042	-5.230470	1116.195085	-41.668928	115.329341	3.178319	-103.621382	-37.881100	0.000000	
-14.305486	-5.586590	1110.508695	-32.626992	116.725623	2.454941	-105.174662	-29.910759	0.000000	
-16.293761	-6.222892	1107.402122	-29.141614	117.223307	2.162560	-105.816173	-26.812801	0.000000	
-9.998491	-5.142786	1114.467875	-41.152787	115.241169	3.264151	-103.688677	-37.479835	0.000000	
-11.016371	-5.063250	1113.436283	-39.602802	115.579296	3.137599	-104.036400	-36.125741	0.000000	
-17.216962	-6.758928	1105.328326	-27.895634	117.379672	2.050092	-106.107828	-25.707123	0.000000	
-10.799725	-5.634544	1111.871155	-39.260439	115.492769	2.954280	-104.114851	-35.838705	0.000000	
-9.590650	-5.398285	1113.253144	-42.490402	115.085573	3.385074	-103.681747	-38.708504	0.000000	
-17.127764	-7.197782	1104.112619	-27.897738	117.350990	1.974918	-106.202349	-25.714137	0.000000	
-15.223498	-6.733735	1104.448499	-31.256350	116.704867	2.206617	-105.682013	-28.771125	0.000000	
-9.505282	-5.880213	1112.035917	-42.579123	115.208122	3.220334	-103.908884	-38.805451	0.000000	
-11.453160	-5.987208	1108.065658	-38.488862	115.437189	2.891205	-104.386467	-35.244810	0.000000	
-18.142560	-7.294496	1101.868637	-25.918126	117.722204	1.863599	-106.702249	-23.963329	0.000000	
-13.489649	-6.804081	1105.477181	-34.314315	116.179626	2.546958	-105.197280	-31.507732	0.000000	
-9.412003	-5.920776	1109.957940	-42.537126	114.847195	3.232967	-103.781483	-38.836691	0.000000	
-15.609628	-6.996137	1101.854497	-31.259416	116.614895	2.253426	-105.827640	-28.826365	0.000000	
-17.201114	-7.586725	1099.264968	-27.945506	117.082037	2.016166	-106.418808	-25.847551	0.000000	
-11.922273	-6.339771	1105.646580	-38.405824	115.316525	3.045775	-104.480194	-35.227150	0.000000	
-14.004475	-6.709888	1100.635783	-34.102739	116.091944	2.606997	-105.550642	-31.455322	0.000000	
-17.378316	-7.321329	1097.362781	-27.256635	117.086345	1.958862	-106.596777	-25.276766	0.000000	
-13.290848	-6.524833	1102.364890	-36.341338	115.627924	2.824139	-105.001707	-33.447401	0.000000	
-9.439590	-6.130318	1104.591689	-42.929534	114.486413	3.290756	-103.953820	-39.366023	0.000000	
-14.568226	-7.107564	1098.042115	-33.675263	116.033805	2.618112	-105.716346	-31.118074	0.000000	
-20.060598	-8.177326	1091.145375	-23.516466	117.555321	1.694315	-107.491559	-21.944400	0.000000	
-9.387248	-6.257482	1101.994704	-42.974955	114.427729	3.338064	-104.146357	-39.491622	0.000000	
-14.166866	-6.921186	1097.174576	-35.140420	115.696200	2.650622	-105.512136	-32.486959	0.000000	
-17.407497	-7.437237	1091.649394	-28.597513	116.661485	1.925380	-106.759863	-26.627150	0.000000	
-14.831261	-6.968584	1094.927112	-33.893102	115.944374	2.485014	-105.919706	-31.410366	0.000000	
-10.218378	-6.032926	1099.232045	-43.451548	114.365187	3.276957	-104.306806	-40.033863	0.000000	
-14.738583	-6.831454	1093.715749	-34.410542	115.670903	2.517425	-105.790863	-31.924392	0.000000	
-22.257027	-8.450774	1084.927478	-21.110260	117.807700	1.483167	-108.222129	-19.833517	0.000000	
-13.442757	-6.544718	1093.191213	-38.029587	115.082793	2.817841	-105.369780	-35.264570	0.000000	
-12.645001	-6.581877	1093.878607	-39.192288	114.897284	2.944032	-105.175392	-36.303930	0.000000	
-16.806066	-7.549219	1088.878982	-31.875387	116.074544	2.273450	-106.521445	-29.697379	0.000000	
-22.615444	-8.271321	1082.331320	-20.724111	117.750983	1.244445	-108.408847	-19.531670	0.000000	
-11.748280	-6.390044	1093.529588	-41.820401	114.433481	3.209730	-104.830586	-38.728431	0.000000	
-12.409936	-6.744892	1090.934149	-41.004899	114.377640	3.024165	-104.992898	-38.052859	0.000000	
-17.073120	-7.549562	1086.282567	-30.842818	115.960107	2.124675	-106.655027	-28.815848	0.000000	
-23.096483	-8.707687	1076.790043	-19.953831	117.486243	1.015784	-108.691752	-18.889912	0.000000	
-12.013571	-6.737198	1089.544947	-41.652015	114.165560	2.948626	-104.951525	-38.694670	0.000000	
-11.879721	-6.559249	1088.679885	-41.264427	114.410100	3.001324	-105.265812	-38.377926	0.000000	
-18.173793	-7.548928	1080.401840	-29.382501	115.878570	1.860476	-107.098644	-27.616662	0.000000	
-17.151106	-7.849755	1081.607214	-30.976396	115.660748	2.076772	-106.831833	-29.044821	0.000000	
-10.948189	-6.323773	1086.769839	-42.858628	113.771695	3.049269	-104.910098	-39.923022	0.000000	
-12.540462	-6.602385	1083.661996	-39.975207	114.025721	2.774756	-105.360684	-37.359949	0.000000	
-15.950291	-7.432538	1079.523583	-33.303194	115.200984	2.231718	-106.673031	-31.276391	0.000000	
-20.566700	-7.875621	1072.622155	-24.003448	116.328022	1.272363	-108.163565	-22.779117	0.000000	
-10.633756	-6.226171	1083.478584	-43.162079	113.501539	3.041222	-104.993331	-40.326952	0.000000	
-13.778216	-6.650008	1078.127600	-37.653269	114.371069	2.458784	-106.153399	-35.391403	0.000000	
-16.924097	-7.434222	1073.295158	-30.894801	115.215367	1.896168	-107.249988	-29.209162	0.000000	
-19.445348	-7.726097	1070.021436	-25.771072	115.930772	1.587476	-108.112092	-24.492299	0.000000	
-10.322860	-5.949635	1078.974396	-43.336489	113.112472	2.923071	-105.083917	-40.667928	0.000000	
-11.601693	-6.226578	1076.385309	-40.754265	113.455751	2.793128	-105.587043	-38.350381	0.000000	
-18.872745	-7.582719	1068.111867	-26.762588	115.476153	1.492511	-107.908417	-25.470454	0.000000	
-19.583504	-7.720647	1066.036980	-25.127450	115.756197	1.291736	-108.342200	-23.977339	0.000000	
-11.378607	-6.088944	1074.479928	-40.841091	113.245777	2.788651	-105.589116	-38.504941	0.000000	
-11.029341	-6.259504	1073.608782	-41.316179	113.215650	2.660668	-105.664344	-38.969127	0.000000	
-20.337114	-7.813900	1062.577597	-23.104973	115.827299	1.069951	-108.719481	-22.144462	0.000000	
-17.188375	-7.115742	1065.332044	-29.477137	114.865494	1.609844	-107.703436	-28.107466	0.000000	
-13.202055	-6.452679	1068.252447	-37.141502	113.567434	2.149027	-106.405398	-35.242350	0.000000	
-9.037748	-5.839220	1072.385066	-44.028850	112.332161	2.835299	-105.064370	-41.564225	0.000000	
-14.801245	-7.130629	1064.101512	-33.139441	114.039810	1.693635	-107.176998	-31.579932	0.000000	
-17.638879	-7.336976	1059.962769	-27.154256	114.789869	1.204540	-108.149827	-26.042543	0.000000	
-14.055652	-6.638005	1064.270848	-33.869751	113.796495	1.694317	-106.970757	-32.287214	0.000000	
-9.925129	-6.061717	1067.019880	-41.965129	112.284234	2.465293	-105.497117	-39.823333	0.000000	
-10.854768	-6.161006	1065.121218	-39.467733	112.627551	2.337423	-105.957125	-37.542936	0.000000	
-20.955957	-8.247993	1051.840985	-20.441582	115.394457	0.561775	-109.376673	-19.806925	0.000000	
-12.941939	-6.577391	1060.801506	-35.120452	113.070261	1.810328	-106.692327	-33.572372	0.000000	
-13.067689	-6.486459	1058.726442	-34.992449	112.950913	1.859183	-106.780505	-33.520496	0.000000	
-8.330483	-5.867562	1063.893441	-42.956161	111.651069	2.583020	-105.293785	-40.879727	0.000000	
-11.251744	-6.023122	1058.024145	-37.705326	112.429325	2.071213	-106.454180	-36.130876	0.000000	
-23.570646	-8.532408	1043.369660	-14.588733	115.725188	-0.081476	-110.434706	-14.336283	0.000000	
-10.629909	-6.278984	1056.633060	-38.568482	112.186310	2.084760	-106.396324	-36.980679	0.000000	
-13.995009	-6.840123	1051.803398	-32.456615	113.208569	1.521877	-107.673657	-31.305976	0.000000	
-8.948184	-5.906340	1056.623391	-41.281228	111.603453	2.262310	-105.934971	-39.568171	0.000000	
-12.715052	-6.252702	1052.836099	-34.693762	112.535329	1.648573	-106.997574	-33.432247	0.000000	
-22.897306	-8.119899	1039.732738	-15.710241	115.361381	0.052783	-110.504677	-15.484498	0.000000	
-10.582130	-5.871453	1052.478757	-39.000791	111.552996	1.984843	-106.213991	-37.555918	0.000000	
-16.645746	-6.993017	1046.279759	-28.152523	113.226428	1.116814	-108.112862	-27.345048	0.000000	
-8.541236	-5.540099	1054.199516	-42.962064	110.872683	2.344498	-105.505192	-41.271192	0.000000	
-12.260616	-6.107508	1049.372629	-35.858680	111.837945	1.764371	-106.707848	-34.657781	0.000000	
-23.816792	-8.249480	1034.371006	-14.982529	115.125058	-0.121572	-110.795057	-14.849990	0.000000	
-10.352093	-5.461106	1048.671087	-39.950711	111.279967	2.029074	-106.348741	-38.617119	0.000000	
-18.096015	-7.037858	1039.190126	-26.090761	113.510460	0.868330	-109.040081	-25.539629	0.000000	
-9.948644	-5.583847	1047.628925	-41.459851	110.851597	2.060566	-106.066463	-40.088682	0.000000	
-10.609300	-5.279462	1046.250811	-40.426087	110.915996	2.040459	-106.231259	-39.168674	0.000000	
-27.000838	-8.403834	1026.772048	-9.560604	115.723467	-0.691443	-112.018016	-9.664888	0.000000	
-13.092234	-5.526416	1042.801564	-35.259096	111.541633	1.605990	-107.046395	-34.327342	0.000000	
-16.095675	-6.257570	1038.489398	-30.784705	112.193616	1.185628	-107.953164	-30.118445	0.000000	
-13.880450	-5.569777	1039.863938	-34.960574	111.543409	1.527022	-107.305755	-34.132603	0.000000	
-9.942233	-4.911600	1043.996515	-42.020795	110.488918	2.069908	-106.085714	-40.798769	0.000000	
-22.743436	-7.290944	1029.693923	-19.076339	113.782202	-0.046439	-110.049091	-18.941735	0.000000	
-17.467928	-6.132703	1034.688969	-28.632973	112.233860	0.891356	-108.311267	-28.153264	0.000000	
-13.875697	-5.431832	1038.479907	-35.650750	111.299382	1.540906	-107.212989	-34.849065	0.000000	
-19.326818	-6.767410	1031.580324	-25.406012	112.549578	0.526899	-108.840234	-25.072959	0.000000	
-10.548939	-4.820496	1040.020749	-41.721955	110.128671	2.077985	-106.109130	-40.669201	0.000000	
-17.149092	-6.209004	1031.743536	-29.927836	111.686740	0.918418	-108.105279	-29.482190	0.000000	
-21.052179	-6.734931	1026.570110	-22.049223	112.867567	0.195031	-109.583047	-21.923229	0.000000	
-15.071497	-5.746718	1032.770435	-32.940998	111.163085	1.152357	-107.604405	-32.396351	0.000000	
-18.568341	-6.351395	1027.421829	-26.958728	112.003480	0.551872	-108.787477	-26.705144	0.000000	
-11.831165	-4.962182	1034.660402	-38.537146	110.023818	1.780541	-106.483905	-37.789884	0.000000	
-12.492543	-5.096400	1032.586086	-37.807160	110.178662	1.650431	-106.810253	-37.149923	0.000000	
-21.494567	-6.294671	1021.900317	-19.939191	112.728745	0.060822	-109.920074	-19.979059	0.000000	
-16.126128	-5.530946	1026.719967	-30.057681	111.299266	1.033074	-108.308881	-29.785985	0.000000	
-13.733045	-4.880511	1029.477397	-36.430592	110.154760	1.357193	-107.039580	-35.934264	0.000000	
-14.703448	-4.804916	1027.754605	-33.717053	110.528556	1.337708	-107.528412	-33.357004	0.000000	
-11.826769	-4.461160	1030.160026	-39.875317	109.538001	1.643341	-106.474298	-39.277705	0.000000	
-17.542784	-5.093233	1023.786870	-29.111765	111.333279	0.740095	-108.572507	-28.969042	0.000000	
-21.969514	-6.023534	1017.924244	-20.114225	112.517979	0.068952	-110.113119	-20.240821	0.000000	
-19.170535	-5.459415	1021.027219	-26.960593	111.159579	0.608323	-108.604259	-26.918150	0.000000	
-16.291597	-4.592017	1024.303849	-31.953253	110.626281	1.133494	-107.896421	-31.756354	0.000000	
-14.293925	-4.347284	1025.331572	-36.044495	109.885488	1.455317	-107.175889	-35.728895	0.000000	
-13.497416	-3.805990	1026.021509	-38.153569	109.453793	1.563258	-106.727160	-37.790602	0.000000	
-20.319678	-4.803335	1017.575974	-24.807600	111.592662	0.477491	-109.332173	-24.927060	0.000000	
-22.748761	-5.091400	1014.821561	-20.847059	112.060505	0.222424	-109.953492	-21.073886	0.000000	
-16.986676	-3.620601	1021.546973	-31.564862	110.325008	1.289191	-107.852383	-31.513019	0.000000	
-17.653976	-3.537571	1019.819307	-30.100902	110.483044	1.107216	-108.152012	-30.134086	0.000000	
-14.940676	-2.975610	1022.231510	-36.043318	109.642898	1.717997	-107.225713	-35.908921	0.000000	
-14.893881	-3.065201	1021.192647	-35.397292	109.434867	1.751674	-107.132850	-35.307083	0.000000	
-20.785571	-4.051191	1012.913795	-23.903405	111.083615	0.754240	-109.303412	-24.187048	0.000000	
-22.864845	-4.072269	1010.677324	-20.070983	111.732845	0.518980	-110.070480	-20.445667	0.000000	
-15.905430	-3.024807	1016.352381	-33.246789	109.718259	1.616552	-107.862298	-33.357685	0.000000	
-17.192355	-3.217506	1015.493687	-30.533358	109.909848	1.401238	-108.070400	-30.702526	0.000000	
-15.374496	-2.446825	1017.045127	-34.062411	109.200759	1.743473	-107.309830	-34.169356	0.000000	
-15.772172	-2.979954	1014.793411	-32.772701	109.207863	1.595015	-107.531203	-32.942985	0.000000	
-21.619322	-3.306528	1008.942956	-21.577053	111.064362	0.783444	-109.665045	-22.014720	0.000000	
-19.393949	-2.879150	1009.452079	-26.659360	110.168413	1.228718	-108.846265	-27.062501	0.000000	
-16.124911	-2.496587	1012.201880	-31.307913	109.245766	1.572910	-107.822392	-31.604912	0.000000	
-14.517656	-2.208898	1013.580742	-35.787343	108.622382	2.002581	-107.150724	-35.998359	0.000000	
-13.672794	-1.847490	1012.539647	-36.303445	108.471185	2.197631	-107.157580	-36.564274	0.000000	
-16.683029	-2.630253	1009.957479	-30.965457	109.095524	1.746300	-107.880485	-31.326835	0.000000	
-21.949520	-3.387105	1003.408604	-21.624388	110.582859	0.966424	-109.767233	-22.174329	0.000000	
-21.870782	-3.392696	1003.406288	-20.158299	110.590165	0.842532	-109.779169	-20.712954	0.000000	
-16.842564	-2.407830	1007.367334	-30.535930	109.128068	2.027455	-108.179264	-30.991295	0.000000	
-14.718764	-2.162700	1009.258063	-34.970947	108.174131	2.243362	-107.150961	-35.342720	0.000000	
-13.790874	-1.891597	1009.946197	-35.744424	107.960374	2.388380	-106.918388	-36.100115	0.000000	
-16.968962	-2.449036	1005.117826	-30.580326	108.645358	2.021392	-107.932304	-31.100706	0.000000	
-18.128277	-3.079821	1003.041502	-27.739939	109.081643	1.623864	-108.524209	-28.296344	0.000000	
-23.433702	-3.578412	996.670349	-17.276661	110.361131	1.042721	-110.197997	-17.945728	0.000000	
-16.028846	-2.391370	1003.902034	-32.347325	108.277050	2.267904	-107.747731	-32.900741	0.000000	
-15.454984	-2.521481	1004.070546	-32.390006	108.217631	2.322156	-107.702670	-32.930592	0.000000	
-15.845131	-2.876226	1002.514379	-32.047336	107.977280	2.335643	-107.607046	-32.618782	0.000000	
-16.557474	-2.794927	1000.960200	-30.281759	108.227139	2.154445	-107.982593	-30.908841	0.000000	
-20.537387	-3.543073	996.655196	-22.834122	109.404148	1.665245	-109.402520	-23.524090	0.000000	
-21.687666	-4.213621	993.887678	-20.942377	109.503596	1.372201	-109.740086	-21.646096	0.000000	
-17.343958	-3.199627	997.675812	-28.216571	108.176311	2.147471	-108.240307	-28.915160	0.000000	
-14.065074	-2.855277	1000.946021	-34.589335	107.214626	2.634408	-107.112268	-35.209389	0.000000	
-15.263170	-2.955920	998.182272	-31.618563	107.500129	2.379296	-107.625336	-32.322787	0.000000	
-16.095393	-3.098441	996.977862	-29.853078	107.627320	2.449178	-107.835143	-30.581996	0.000000	
-20.169622	-4.239659	990.417165	-22.365250	108.625832	1.667177	-109.321608	-23.154263	0.000000	
-20.258185	-4.111251	991.458213	-21.933405	108.898584	1.742162	-109.477736	-22.702505	0.000000	
-17.285093	-3.551233	994.733422	-27.658681	107.757124	2.319239	-108.140062	-28.417609	0.000000	
-16.213321	-3.447824	994.036079	-29.899122	107.295816	2.566575	-107.811794	-30.696695	0.000000	
-15.765829	-3.440343	993.687639	-31.062929	107.140465	2.672238	-107.718253	-31.878796	0.000000	
-16.172644	-3.890504	993.512541	-29.469288	107.087112	2.439498	-107.660422	-30.254801	0.000000	
-17.404848	-3.721303	990.406598	-27.532942	107.458128	2.362159	-108.300381	-28.401616	0.000000	
-21.963514	-4.918629	985.236174	-18.535970	108.793159	1.692385	-109.960023	-19.346420	0.000000	
-17.757729	-4.123799	989.021749	-26.199038	107.494787	2.287722	-108.467970	-27.068701	0.000000	
-15.444638	-3.701679	989.704163	-30.203049	106.482443	2.788153	-107.501982	-31.120193	0.000000	
-15.574054	-4.053431	989.183850	-30.463617	106.602432	2.768253	-107.672074	-31.379600	0.000000	
-15.262673	-3.610071	991.089943	-31.495006	106.445207	2.933704	-107.325500	-32.386574	0.000000	
-15.656340	-3.875741	988.840718	-30.765065	106.479661	2.874699	-107.580338	-31.705138	0.000000	
-19.386056	-4.267486	984.877821	-23.746413	107.232839	2.117424	-108.562306	-24.680705	0.000000	
-20.699979	-4.727080	984.196240	-20.990747	107.695210	2.260735	-109.031832	-21.871118	0.000000	
-18.084021	-4.519780	985.738448	-26.244972	106.738581	2.618605	-108.040914	-27.180214	0.000000	
-15.421374	-3.916965	989.015609	-31.841617	105.839025	3.142175	-106.927033	-32.785846	0.000000	
-16.263015	-4.411370	988.325455	-30.379045	106.177191	2.979785	-107.295530	-31.300256	0.000000	
-17.503064	-4.374526	984.696821	-28.141403	106.429720	2.704113	-107.873810	-29.142286	0.000000	
-19.230825	-5.015543	985.224457	-25.040999	106.923196	2.491820	-108.218940	-25.943706	0.000000	
-21.223891	-5.433663	981.598953	-20.563985	107.547005	2.145908	-109.137314	-21.451687	0.000000	
-19.314806	-5.060890	983.494642	-24.094214	107.019090	2.542369	-108.500608	-25.022647	0.000000	
-15.949974	-4.586333	986.938008	-30.034708	105.817537	3.030145	-107.098643	-30.984275	0.000000	
-15.499611	-4.579931	986.590589	-31.026041	105.662656	3.207641	-107.004706	-32.000070	0.000000	
-17.139522	-4.995135	984.867129	-27.840188	106.037866	2.918697	-107.478128	-28.796187	0.000000	
-18.683589	-5.671962	982.796806	-25.216121	106.561918	2.735694	-108.147953	-26.146496	0.000000	
-15.493828	-5.333128	986.241283	-30.726051	105.301231	3.241424	-106.676188	-31.664091	0.000000	
-14.216659	-4.832909	987.272462	-33.050131	104.900143	3.296533	-106.231915	-34.014337	0.000000	
-16.561187	-5.565670	984.341076	-28.142730	105.584675	2.969958	-107.107711	-29.085975	0.000000	
-15.941780	-5.518159	985.030350	-28.486626	105.765282	3.097362	-107.251948	-29.418020	0.000000	
-13.591576	-4.871778	985.884518	-33.050631	104.841838	3.454787	-106.356797	-34.059374	0.000000	
-17.584181	-5.889160	982.440612	-24.913219	105.991974	2.734992	-107.669535	-25.834960	0.000000	
-17.267111	-5.883813	981.054921	-25.344757	105.749536	2.856642	-107.591514	-26.310480	0.000000	
-13.499453	-5.271179	985.882694	-32.835550	104.510138	3.507850	-106.025785	-33.818544	0.000000	
-15.890641	-5.740506	982.779669	-27.496391	105.166409	3.163713	-106.889317	-28.463249	0.000000	
-16.602996	-6.186958	981.914238	-26.594065	105.412217	2.910840	-107.192462	-27.543162	0.000000	
-15.541281	-6.044421	983.119888	-28.401974	105.103074	3.055859	-106.808116	-29.357468	0.000000	
-12.656803	-5.484371	985.529753	-33.740338	104.084930	3.595505	-105.679996	-34.736299	0.000000	
-15.179297	-6.084914	982.080391	-28.660704	104.770363	3.214199	-106.602234	-29.648819	0.000000	
-22.145863	-7.306955	975.016015	-15.141874	106.849009	1.898551	-109.099914	-15.922184	0.000000	
-17.043538	-6.324422	979.839042	-25.173386	105.177316	2.834890	-107.152856	-26.141992	0.000000	
-19.031633	-7.096418	977.251682	-21.213893	105.797549	2.579973	-107.954993	-22.113069	0.000000	
-17.610631	-6.905238	979.495483	-24.270774	105.391573	2.887672	-107.376422	-25.196099	0.000000	
-21.868357	-7.523302	973.976846	-15.789116	106.453691	2.091943	-108.825583	-16.590377	0.000000	
-19.157102	-7.141471	976.042114	-20.869698	105.496843	2.666531	-107.772501	-21.784231	0.000000	
-20.891918	-7.602531	974.489965	-17.253324	106.116093	2.253149	-108.478480	-18.080045	0.000000	
-18.542588	-6.914600	976.210982	-21.644092	105.222814	2.648730	-107.508608	-22.586908	0.000000	
-14.553137	-6.477942	982.768114	-29.866771	104.100087	3.374999	-105.881908	-30.833415	0.000000	
-12.732353	-6.059048	983.798443	-33.526768	103.421120	3.715373	-105.185538	-34.546136	0.000000	
-17.913854	-7.041844	978.459629	-23.581662	104.910440	2.938699	-106.980150	-24.509796	0.000000	
-15.961706	-6.888587	980.006669	-27.284749	104.170842	3.261975	-106.169594	-28.259797	0.000000	
-13.482055	-6.376716	982.070862	-31.719024	103.459118	3.622524	-105.365046	-32.746581	0.000000	
-10.998452	-6.000809	986.213781	-36.539677	102.622417	4.130610	-104.218635	-37.521859	0.000000	
-19.591932	-7.629744	974.657794	-20.569991	104.983970	2.644031	-107.373214	-21.478409	0.000000	
-15.115462	-6.881613	980.868337	-28.705189	103.681313	3.477668	-105.626349	-29.684229	0.000000	
-24.551626	-8.610025	969.144512	-10.797404	106.563876	1.902858	-109.322626	-11.455493	0.000000	
-19.016466	-7.407663	975.002450	-20.482072	104.864086	2.788866	-107.245695	-21.393711	0.000000	
-30.840628	-9.959603	961.560018	2.161354	108.338523	0.925755	-111.657337	2.016117	0.000000	
-10.897055	-6.396728	983.962993	-36.240005	102.201722	4.285869	-104.033461	-37.278697	0.000000	
-19.316904	-7.633063	975.005983	-20.094694	104.713129	2.931860	-107.073193	-20.983357	0.000000	
-28.795100	-9.494390	962.936437	-2.015192	107.626894	1.374119	-110.879030	-2.352336	0.000000	
-16.746454	-7.471227	976.029078	-24.832186	103.789594	3.253117	-106.163332	-25.825360	0.000000	
-23.083100	-8.243291	969.139088	-12.819866	105.589580	2.241752	-108.402933	-13.563649	0.000000	
-22.104318	-8.544767	970.344312	-14.370409	105.281084	2.457960	-108.007940	-15.128310	0.000000	
-16.395753	-7.249959	976.374020	-24.658471	103.790910	3.290521	-106.147606	-25.651321	0.000000	
-11.462395	-6.491845	981.545140	-34.474802	102.058329	4.370750	-104.109383	-35.564695	0.000000	
-29.545281	-9.680771	960.343852	0.310285	107.244397	1.261556	-110.734115	0.075902	0.000000	
-22.770619	-8.554328	968.790190	-12.173406	105.321041	2.330605	-108.182597	-12.882942	0.000000	
-12.793826	-7.301969	979.297132	-31.419290	102.192533	4.025999	-104.407319	-32.477946	0.000000	
-13.500520	-7.086366	978.091501	-30.256648	102.529631	3.970729	-104.839153	-31.340661	0.000000	
-19.389901	-8.072200	971.024839	-19.408539	104.204470	3.047222	-106.980903	-20.334051	0.000000	
-12.963468	-7.209675	976.702786	-31.292043	102.255039	4.055872	-104.736809	-32.437076	0.000000	
-17.572001	-7.745136	972.920096	-22.723179	103.526426	3.371943	-106.181961	-23.721784	0.000000	
-18.365618	-8.106373	971.538830	-21.174073	103.683862	3.279692	-106.448018	-22.139004	0.000000	
-20.099326	-8.260350	969.816719	-17.082492	104.184046	2.938368	-107.051088	-17.949043	0.000000	
-11.355354	-6.884295	979.641553	-35.338344	101.268898	4.596891	-103.510446	-36.491233	0.000000	
-17.386235	-7.740618	973.093971	-23.929504	103.188009	3.532160	-105.826065	-24.957631	0.000000	
-20.177799	-8.123911	969.993362	-18.332156	104.056410	3.098786	-106.895613	-19.242137	0.000000	
-16.002499	-7.547881	973.608081	-26.814722	102.481298	3.907227	-105.124476	-27.919417	0.000000	
-17.729950	-7.612821	972.927237	-23.412098	103.128128	3.729219	-105.762697	-24.437335	0.000000	
-26.451577	-9.599326	963.969551	-8.001968	105.514477	2.373061	-108.706074	-8.555122	0.000000	
-12.844970	-6.895142	977.058067	-33.488153	101.395782	4.645393	-103.826382	-34.691315	0.000000	
-14.659066	-7.044427	976.550034	-31.206518	101.916395	4.430528	-104.308870	-32.363938	0.000000	
-28.037799	-9.697224	959.825073	-5.507037	105.857961	2.185641	-109.437197	-5.983471	0.000000	
-22.859095	-8.279685	967.764365	-15.232970	104.215784	3.076685	-107.149233	-16.073135	0.000000	
-20.180285	-7.803273	968.966450	-21.521249	103.192951	3.809297	-106.116809	-22.571467	0.000000	
-20.449753	-7.852048	968.967035	-20.831348	102.983999	3.702008	-105.885497	-21.856633	0.000000	
-18.764194	-7.659928	972.594278	-24.490401	102.544494	4.066293	-105.138889	-25.551392	0.000000	
-15.210342	-7.089531	974.827448	-31.466383	101.399468	4.747616	-103.929794	-32.683671	0.000000	
-21.366252	-8.083140	968.283207	-19.410916	103.169190	3.844311	-106.097870	-20.391145	0.000000	
-24.818540	-8.512156	963.974771	-13.599943	104.068283	3.318200	-107.300301	-14.425540	0.000000	
-19.281903	-7.923698	969.482060	-24.105982	102.456296	4.112162	-105.352940	-25.219022	0.000000	
-14.444863	-6.859597	975.520303	-33.489946	100.876177	5.105864	-103.364144	-34.748602	0.000000	
-17.983202	-7.601742	971.211114	-27.032977	101.717384	4.615630	-104.480995	-28.207929	0.000000	
-20.380490	-7.890831	967.067967	-21.737679	102.526192	4.108121	-105.622505	-22.832902	0.000000	
-20.503105	-7.758833	966.726229	-21.780782	102.525070	4.304490	-105.651287	-22.892934	0.000000	
-19.217167	-7.566695	967.411407	-24.450661	101.970991	4.483213	-105.078855	-25.648257	0.000000	
-26.569266	-8.658121	959.142459	-10.501639	104.141322	3.362152	-107.810666	-11.255299	0.000000	
-14.907280	-6.724798	971.373818	-33.190640	100.333833	5.382224	-103.216974	-34.593123	0.000000	
-15.220851	-6.597635	971.202970	-32.113101	100.489429	5.311366	-103.377086	-33.496923	0.000000	
-23.541963	-8.183454	960.860829	-16.271590	103.000459	4.078710	-106.608711	-17.269323	0.000000	
-21.857512	-7.941106	962.755374	-20.448883	102.379076	4.312895	-105.853219	-21.589956	0.000000	
-20.212433	-7.488339	965.001083	-22.728263	101.704257	4.782862	-105.005071	-23.929979	0.000000	
-21.312608	-7.626960	961.892007	-20.964994	102.074962	4.669148	-105.663146	-22.163488	0.000000	
-20.070191	-7.348195	962.751632	-23.419033	101.491174	4.884396	-105.035537	-24.709655	0.000000	
-16.076868	-6.425864	967.408486	-30.693554	100.434113	5.715378	-103.672649	-32.167712	0.000000	
-21.876373	-7.455232	959.995488	-19.845331	101.928019	4.808766	-105.684317	-21.049383	0.000000	
-23.513842	-7.783114	958.793023	-16.659170	102.453666	4.610928	-106.268285	-17.732479	0.000000	
-21.559938	-7.184894	959.650255	-20.749488	101.652209	4.968608	-105.453147	-22.014643	0.000000	
-14.831437	-5.884578	967.924786	-32.500097	99.762271	6.038241	-102.995858	-34.048773	0.000000	
-18.990582	-6.366740	962.928876	-25.181412	100.697131	5.457707	-104.254643	-26.592672	0.000000	
-22.181663	-6.840919	958.964051	-18.938897	101.689532	4.915147	-105.530586	-20.161870	0.000000	
-19.705656	-6.201198	961.548353	-22.553106	100.920438	5.277875	-104.593705	-23.905935	0.000000	
-20.224099	-6.555136	960.513501	-22.770963	100.888231	5.363837	-104.641729	-24.136953	0.000000	
-24.787491	-7.263387	954.824863	-14.117823	102.131823	4.603547	-106.294740	-15.171752	0.000000	
-15.264533	-5.093752	966.550343	-31.636569	99.462610	6.233443	-102.806027	-33.248529	0.000000	
-15.301553	-5.046722	965.167064	-31.938800	99.098982	6.301164	-102.573336	-33.610890	0.000000	
-26.475767	-7.373309	953.622670	-10.198066	102.691212	4.317194	-106.915009	-11.073000	0.000000	
-24.909732	-7.045521	953.272138	-13.083684	102.075902	4.816036	-106.400737	-14.123133	0.000000	
-19.420853	-5.665856	961.208588	-23.887108	100.308712	5.706031	-104.010609	-25.333185	0.000000	
-17.649624	-5.470376	961.197796	-26.341780	99.938857	5.919692	-103.730376	-27.898635	0.000000	
-19.780831	-5.761575	959.650975	-21.776474	100.379562	5.542875	-104.230933	-23.168011	0.000000	
-15.356598	-4.654664	963.436204	-29.697198	99.201621	6.138708	-102.859529	-31.365971	0.000000	
-20.393507	-5.500248	957.234352	-20.484889	100.506350	5.574336	-104.588626	-21.890478	0.000000	
-23.724626	-6.243765	953.266959	-13.466927	101.230286	4.852604	-105.583993	-14.572427	0.000000	
-17.700798	-4.993917	959.988778	-23.582239	100.042778	5.902437	-103.965284	-25.086039	0.000000	
-13.178852	-4.060216	964.293547	-32.967744	98.101440	6.622436	-101.754572	-34.765046	0.000000	
-16.636480	-4.495487	960.850506	-26.035308	99.216640	6.081803	-103.075103	-27.646394	0.000000	
-18.800277	-4.916613	958.267138	-21.730146	99.807406	5.881352	-103.840656	-23.201423	0.000000	
-17.521546	-4.373030	958.606628	-23.580389	99.408835	5.971185	-103.463224	-25.155449	0.000000	
-16.011355	-3.872725	960.332701	-26.334582	98.883629	6.332095	-102.820013	-28.008884	0.000000	
-25.047937	-5.599844	948.607454	-8.426097	101.585549	4.846946	-106.394987	-9.364174	0.000000	
-12.201221	-2.907109	964.296344	-33.221422	97.647710	6.982412	-101.340635	-35.095112	0.000000	
-14.071552	-3.103890	962.573292	-29.431936	98.237446	6.515320	-102.024274	-31.208180	0.000000	
-21.159374	-4.238340	954.128900	-15.482664	100.166687	5.393762	-104.525442	-16.790575	0.000000	
-18.674341	-3.332047	958.275658	-20.345058	99.420112	5.992280	-103.442957	-21.848606	0.000000	
-15.840895	-2.858561	960.163556	-25.641348	98.584695	6.351614	-102.536611	-27.350943	0.000000	
-23.327355	-4.218574	953.105706	-11.649077	100.723796	5.197171	-105.093701	-12.786686	0.000000	
-12.865459	-2.166866	964.133086	-31.495347	97.562704	7.020113	-101.230837	-33.353709	0.000000	
-14.154661	-2.047950	963.102236	-29.083049	97.874199	6.768856	-101.586668	-30.890750	0.000000	
-23.546160	-3.559453	952.419724	-10.914616	100.484581	5.286416	-104.904772	-12.062988	0.000000	
-21.784443	-3.057983	955.871717	-14.227783	99.926879	5.436046	-104.048730	-15.517915	0.000000	
-18.553060	-2.408306	959.836574	-20.038628	99.027495	5.943598	-102.874059	-21.549144	0.000000	
-21.291008	-3.006453	955.870120	-15.563309	99.679635	5.596105	-103.819208	-16.918148	0.000000	
-13.587383	-1.296940	966.564781	-30.197860	97.444124	6.866615	-100.813551	-31.979971	0.000000	
-13.059457	-1.335845	967.425717	-31.231412	97.289076	6.867784	-100.594885	-33.018332	0.000000	
-23.914999	-3.127260	955.538444	-10.436891	100.423400	5.115479	-104.479264	-11.551693	0.000000	
-23.355467	-2.727888	956.918392	-10.692475	100.211653	4.958043	-104.141261	-11.826714	0.000000	
-17.990690	-1.791026	964.162788	-21.239319	98.566478	5.953515	-101.970568	-22.737342	0.000000	
-19.367318	-1.939067	962.611823	-18.310990	98.850299	5.683129	-102.348199	-19.721972	0.000000	
-14.760473	-1.055254	968.474580	-26.661883	97.759204	6.480421	-100.873676	-28.281434	0.000000	
-12.156011	-0.632728	971.574239	-31.224426	96.804992	6.717597	-99.722645	-32.914232	0.000000	
-20.754961	-1.828895	962.272779	-14.131123	99.441542	5.328007	-102.917494	-15.391313	0.000000	
-23.238205	-2.562692	961.245162	-9.912227	100.151789	4.897713	-103.620610	-10.975076	0.000000	
-15.800875	-0.768177	968.825334	-22.609190	97.866555	6.073059	-100.887993	-24.105016	0.000000	
-16.207554	-0.994887	969.344097	-21.661943	98.263305	5.877974	-101.220179	-23.102224	0.000000	
-15.103346	-0.896185	969.682702	-23.211422	97.623717	5.949140	-100.589417	-24.698075	0.000000	
-11.034381	0.110363	975.895625	-29.967027	96.659458	6.623387	-99.199907	-31.526350	0.000000	
-18.346683	-1.647045	967.620852	-15.243841	98.773463	5.376708	-101.802231	-16.471234	0.000000	
-19.684851	-1.439813	966.416224	-12.745209	98.964807	5.017605	-102.048446	-13.917323	0.000000	
-11.933980	-0.083955	975.205146	-26.433774	96.765461	6.284069	-99.326525	-27.913829	0.000000	
-12.650155	0.216906	974.863050	-24.882176	97.013438	6.087948	-99.574256	-26.349050	0.000000	
-15.050538	-0.564663	972.275362	-18.897088	97.854435	5.566260	-100.563631	-20.216156	0.000000	
-10.534782	0.587861	976.407840	-27.334572	96.522617	6.234029	-99.036842	-28.841616	0.000000	
-15.942866	-0.309817	970.722855	-16.656643	97.924632	5.331732	-100.743942	-17.953902	0.000000	
-18.080276	-0.779632	969.692984	-11.703667	98.609094	4.849034	-101.432281	-12.837145	0.000000	
-9.569098	1.073565	979.520414	-27.889424	96.035746	6.385081	-98.282905	-29.346826	0.000000	
-11.131185	1.142437	978.489590	-24.227744	96.594648	5.991749	-98.867230	-25.638659	0.000000	
-12.681742	0.550972	977.110999	-21.257548	96.938561	5.721091	-99.268541	-22.599948	0.000000	
-9.902766	1.196773	979.171311	-25.432636	96.320190	5.939088	-98.589040	-26.855010	0.000000	
-14.914588	0.568739	974.350363	-15.744354	97.627292	5.074273	-100.125851	-17.004373	0.000000	
-16.066155	0.470461	971.932936	-13.506005	97.788140	4.854986	-100.471943	-14.735985	0.000000	
-8.145452	2.181432	981.586672	-27.623912	95.617187	6.052104	-97.732642	-29.079594	0.000000	
-9.745973	1.718207	982.286012	-24.737844	95.807818	5.750464	-97.766267	-26.094897	0.000000	
-11.918999	1.342800	977.795382	-19.572002	96.586413	5.313712	-98.883235	-20.906314	0.000000	
-8.249678	2.568814	983.491552	-26.155387	95.562078	5.897309	-97.482893	-27.553771	0.000000	
-14.054204	1.231501	976.074959	-15.394775	97.267865	4.847050	-99.631554	-16.655715	0.000000	
-16.236736	1.202926	974.181628	-10.052818	97.682359	4.363023	-100.123433	-11.201328	0.000000	
-7.197914	2.752654	984.521910	-27.100961	95.197166	5.863620	-97.070987	-28.496702	0.000000	
-8.094547	2.651610	983.139520	-24.215117	95.542741	5.540327	-97.506701	-25.594527	0.000000	
-10.752236	2.269309	980.557702	-19.134053	96.075919	5.143237	-98.153038	-20.456092	0.000000	
-6.731645	3.193792	984.689602	-26.193506	95.052179	5.597041	-96.933918	-27.595560	0.000000	
-11.083920	2.436197	979.690031	-16.418667	96.240790	4.732035	-98.388564	-17.711368	0.000000	
-13.297828	2.058136	978.144637	-12.242012	96.951379	4.444509	-99.142238	-13.446403	0.000000	
-6.304425	3.409156	986.243539	-25.156038	94.785057	5.476704	-96.535885	-26.513674	0.000000	
-8.257353	3.253493	984.523490	-20.935288	95.345710	5.153335	-97.161334	-22.262605	0.000000	
-7.778323	3.081578	983.477933	-20.806932	95.409603	5.007814	-97.356086	-22.145089	0.000000	
-3.402542	4.360089	988.302958	-28.208740	93.990990	5.588683	-95.697647	-29.602938	0.000000	
-11.564177	3.079108	979.515999	-11.632078	96.535646	4.146089	-98.679416	-12.864510	0.000000	
-11.077356	2.995107	979.685217	-12.364021	96.140251	4.181386	-98.286795	-13.604738	0.000000	
-3.817395	4.700246	988.304750	-25.405834	94.063867	5.340966	-95.747663	-26.786123	0.000000	
-7.413335	4.130425	984.167546	-17.827483	95.001334	4.637604	-96.894392	-19.162557	0.000000	
-3.002732	4.743183	990.024864	-24.756462	93.827083	5.023630	-95.389675	-26.087514	0.000000	
-0.166318	5.608564	993.129327	-29.403953	93.113704	5.584280	-94.535887	-30.737041	0.000000	
-10.415270	3.869727	979.848758	-8.911660	96.159935	3.577920	-98.328523	-10.129324	0.000000	
-8.426618	4.369763	982.955264	-11.621208	95.665573	3.906701	-97.630838	-12.884956	0.000000	
-2.803445	5.001982	988.634964	-22.083629	93.872378	4.683189	-95.579799	-23.434175	0.000000	
-5.870732	5.098366	986.229516	-15.579038	94.623071	4.109393	-96.397672	-16.899421	0.000000	
1.164660	6.094709	993.633075	-27.632895	92.915339	5.087097	-94.363881	-28.966916	0.000000	
1.516568	6.141505	992.764644	-27.503390	92.675699	5.067309	-94.224241	-28.863740	0.000000	
-9.801447	4.961076	981.052472	-4.983768	96.271493	2.977790	-98.357663	-6.176557	0.000000	
-5.640600	5.267438	985.181551	-12.388972	94.853057	3.519564	-96.745928	-13.688112	0.000000	
0.113373	6.293144	992.075471	-22.331913	93.151916	4.407723	-94.689810	-23.679016	0.000000	
-2.113780	6.355329	990.356210	-17.464360	93.866575	3.906095	-95.448263	-18.807284	0.000000	
5.065780	7.753893	997.244366	-30.680391	91.427571	5.096308	-92.752627	-32.014230	0.000000	
3.236653	7.645518	994.828202	-26.417065	92.111061	4.574559	-93.559865	-27.798408	0.000000	
-7.757196	5.633128	981.899751	-5.064061	95.400445	2.640872	-97.503179	-6.292104	0.000000	
-0.239463	6.940949	991.378749	-18.278108	93.142495	3.658345	-94.726330	-19.642692	0.000000	
2.023983	7.716433	993.101316	-22.453708	92.612591	4.126263	-94.157686	-23.858451	0.000000	
-1.171569	6.886987	989.133096	-15.866915	93.365011	3.457842	-95.111688	-17.244698	0.000000	
7.549606	8.961775	998.957004	-31.664127	90.976152	4.833774	-92.282579	-33.013345	0.000000	
4.135550	8.617656	995.686632	-25.463825	91.846233	4.256842	-93.264561	-26.872554	0.000000	
-6.065023	6.609880	983.618002	-4.841700	94.770607	2.378449	-96.790428	-6.112186	0.000000	
0.715776	8.224800	991.722499	-17.884459	92.662902	3.589981	-94.264218	-19.311867	0.000000	
1.502770	8.231400	992.234013	-18.616087	92.571091	3.501369	-94.168002	-20.040057	0.000000	
1.013826	8.221623	991.718092	-16.676981	92.669753	3.448071	-94.288404	-18.094208	0.000000	
8.636142	9.581799	999.468593	-31.099254	90.255945	4.693162	-91.576152	-32.466497	0.000000	
4.818837	9.233058	995.160661	-23.693050	91.162041	3.953478	-92.664444	-25.141640	0.000000	
-1.830400	7.837011	987.230103	-10.174893	93.211353	2.796934	-95.100420	-11.564718	0.000000	
2.376524	8.588801	991.361875	-18.225981	92.001645	3.410654	-93.725197	-19.683696	0.000000	
-0.023772	8.427698	988.431516	-12.540971	92.690130	2.924446	-94.561015	-13.978949	0.000000	
0.373543	8.431059	989.640722	-13.445089	92.655768	2.980415	-94.434241	-14.876635	0.000000	
9.807135	9.803127	1001.188266	-30.707019	89.595073	4.483119	-90.825749	-32.032761	0.000000	
5.239029	9.227743	994.460131	-21.493969	90.902837	3.613637	-92.492224	-22.947146	0.000000	
2.308207	8.489334	990.836842	-15.337624	91.714140	2.981826	-93.480411	-16.772994	0.000000	
4.698014	9.174827	994.634274	-20.028543	90.938960	3.382196	-92.481967	-21.466954	0.000000	
1.728143	8.124827	991.011285	-13.356437	92.114995	2.858283	-93.835744	-14.750391	0.000000	
2.075646	8.219329	989.275471	-13.486172	91.845246	2.692896	-93.746045	-14.911347	0.000000	
10.934389	9.672203	1001.693937	-29.843099	89.360891	4.216762	-90.609651	-31.147208	0.000000	
5.967947	8.606058	996.177488	-20.630758	90.606407	3.277473	-92.077618	-22.007449	0.000000	
2.635574	8.083068	990.479828	-12.536004	91.608823	2.535414	-93.426037	-13.927185	0.000000	
6.007066	8.292241	995.482012	-19.123400	90.765456	3.187476	-92.303372	-20.490369	0.000000	
3.653645	7.650795	992.721144	-14.819151	91.296809	2.645699	-92.960122	-16.173032	0.000000	
2.574980	7.501705	992.204340	-11.587927	91.673352	2.235067	-93.326635	-12.915990	0.000000	
11.306004	8.918898	1001.160100	-28.378993	89.068877	3.660425	-90.386697	-29.658756	0.000000	
7.848251	8.127599	998.061368	-21.145238	90.034015	3.102300	-91.437506	-22.456024	0.000000	
2.666633	7.104203	992.375291	-11.761035	91.521344	2.270437	-93.162699	-13.065867	0.000000	
5.853457	7.886582	996.340970	-17.786772	90.318460	2.759703	-91.767187	-19.109024	0.000000	
4.826122	7.208493	995.129731	-14.600747	90.664997	2.418246	-92.168233	-15.891442	0.000000	
3.587601	7.107907	993.233101	-12.146641	91.007399	2.254285	-92.617500	-13.443728	0.000000	
12.141061	8.651880	1003.403544	-28.376273	88.554855	3.737058	-89.720784	-29.576619	0.000000	
6.202331	7.618468	996.336420	-16.795259	90.142566	2.724507	-91.610708	-18.098849	0.000000	
2.520688	6.920399	991.679355	-10.036922	91.046466	1.982975	-92.740406	-11.325488	0.000000	
6.066054	7.878877	996.858006	-16.147360	90.053963	2.708674	-91.466635	-17.454521	0.000000	
6.557661	7.530954	997.026822	-17.096049	89.929561	2.815313	-91.354174	-18.383642	0.000000	
6.240649	7.746103	998.240794	-16.577499	89.990942	2.711391	-91.287705	-17.854903	0.000000	
13.109219	9.227185	1005.478178	-28.845136	87.857389	3.903552	-88.897645	-30.015681	0.000000	
6.505627	7.748130	998.065592	-16.878451	89.536771	2.710377	-90.863436	-18.159543	0.000000	
3.000792	7.178383	993.928833	-9.085054	90.868292	2.097292	-92.380137	-10.358577	0.000000	
6.546875	7.700427	997.891723	-15.887236	89.662523	2.693128	-91.007468	-17.166574	0.000000	
6.810670	8.014634	998.064130	-16.791125	89.507829	2.693131	-90.851719	-18.087055	0.000000	
5.927387	7.558087	998.242003	-14.551492	89.727115	2.658876	-91.005696	-15.814739	0.000000	
13.634811	8.608132	1007.720819	-29.404426	87.461563	3.871518	-88.338031	-30.471229	0.000000	
8.130345	7.932486	1002.208991	-18.898556	89.014405	2.808658	-90.060783	-20.113800	0.000000	
4.323651	7.011354	996.514995	-11.323090	90.224391	2.190783	-91.570766	-12.570262	0.000000	
3.476888	6.997660	997.731876	-9.727633	90.168261	2.051263	-91.356166	-10.956068	0.000000	
8.040583	7.437351	1003.939068	-17.820902	89.108205	2.848968	-89.995354	-18.979442	0.000000	
6.888515	7.428565	1001.868225	-15.884120	89.448906	2.630532	-90.455291	-17.083329	0.000000	
14.107548	8.776960	1012.219121	-29.355997	87.005846	3.864443	-87.524944	-30.300941	0.000000	
8.217765	7.435581	1005.150481	-17.991761	88.834337	2.923163	-89.625267	-19.127432	0.000000	
7.630681	7.691887	1005.153338	-16.267625	89.204416	2.692362	-89.960424	-17.426391	0.000000	
4.178494	6.900397	1003.787703	-10.023792	89.981657	2.280490	-90.663084	-11.184479	0.000000	
8.429930	7.739564	1007.400713	-17.471733	88.986757	2.929800	-89.589946	-18.587245	0.000000	
9.352979	7.874484	1010.684961	-18.717476	88.587378	3.044283	-88.957467	-19.769550	0.000000	
15.289965	9.169085	1017.580691	-29.478261	86.731225	4.075258	-86.863250	-30.287342	0.000000	
8.068269	7.854730	1010.347716	-15.399789	88.962185	2.956669	-89.286521	-16.491073	0.000000	
8.819253	8.213161	1012.250231	-16.603698	88.956683	3.122289	-89.156378	-17.670813	0.000000	
5.799829	7.338236	1009.838587	-10.360317	89.585694	2.510895	-89.822534	-11.479906	0.000000	
11.119712	8.227156	1016.391496	-19.615078	88.339768	3.524249	-88.316349	-20.565712	0.000000	
8.856377	8.069001	1013.807463	-14.705740	88.964020	3.127697	-89.029934	-15.764830	0.000000	
16.387313	9.599890	1023.118150	-28.608880	86.581096	4.413066	-86.310822	-29.301705	0.000000	
11.237905	8.921138	1019.683285	-18.058037	88.253602	3.534653	-87.955785	-19.013147	0.000000	
9.199800	8.013916	1017.786645	-13.839732	88.784023	3.173815	-88.527018	-14.852464	0.000000	
6.930739	8.030430	1015.548756	-8.541466	89.410103	2.707074	-89.211493	-9.667168	0.000000	
14.465280	9.163813	1024.858118	-22.317290	87.511435	4.046183	-86.968170	-23.090478	0.000000	
12.465628	9.139260	1023.138625	-17.794365	88.043104	3.687418	-87.522990	-18.705934	0.000000	
17.020044	10.287562	1029.866685	-26.488219	86.587252	4.343076	-85.790851	-27.093327	0.000000	
14.762378	9.510170	1026.934128	-21.365422	87.273072	3.998794	-86.578072	-22.137463	0.000000	
10.140264	9.104850	1022.803000	-11.847861	88.550000	3.064370	-87.919483	-12.895988	0.000000	
5.760110	8.484524	1017.635413	-3.237147	89.913640	2.502726	-89.460445	-4.461652	0.000000	
15.719416	10.037567	1030.218087	-21.273286	86.850034	4.007707	-85.946095	-22.008778	0.000000	
15.183178	10.116188	1030.394825	-19.506371	87.249861	3.920480	-86.290322	-20.294629	0.000000	
17.522495	10.798314	1034.191231	-23.464350	86.357280	4.213922	-85.240295	-24.087246	0.000000	
17.430755	10.793596	1034.711094	-22.645139	86.541824	4.198185	-85.371242	-23.283567	0.000000	
9.934350	9.303308	1026.090820	-8.137372	88.806609	2.771758	-87.879117	-9.251983	0.000000	
9.175635	9.645045	1025.404479	-5.852816	88.936788	2.629195	-88.022849	-7.048375	0.000000	
14.753143	10.755853	1034.032128	-16.053026	87.353361	3.575035	-86.066316	-16.921121	0.000000	
17.408171	11.314617	1036.094805	-20.874855	86.610229	3.917442	-85.323078	-21.573161	0.000000	
17.670713	11.533164	1038.345445	-21.130832	86.607617	4.012621	-85.151516	-21.786496	0.000000	
17.621564	11.705550	1038.346068	-20.224738	86.460497	3.959845	-85.007123	-20.923166	0.000000	
12.652622	10.678650	1033.176396	-10.020550	87.831065	3.040472	-86.485241	-11.091504	0.000000	
7.286707	10.003221	1027.492555	0.700384	89.717431	2.139106	-88.502174	-0.677406	0.000000	
13.264181	11.211400	1034.212864	-10.319312	87.770008	3.061721	-86.373497	-11.398984	0.000000	
18.577332	12.321544	1040.937731	-19.659224	86.312423	3.950097	-84.706706	-20.363027	0.000000	
16.225704	11.986838	1039.391930	-15.396312	86.902551	3.537091	-85.272329	-16.272682	0.000000	
19.804653	13.126271	1042.662888	-21.334999	85.701922	3.971866	-84.048379	-21.981191	0.000000	
14.883504	12.187246	1038.706783	-11.603741	87.129489	3.180536	-85.474035	-12.642462	0.000000	
7.786894	10.919101	1030.259235	2.819084	89.243184	1.880290	-87.833546	1.328825	0.000000	
10.438534	11.695229	1032.842419	-1.441165	88.471769	2.224785	-87.013003	-2.843475	0.000000	
19.739733	13.467279	1043.527339	-18.703377	85.774331	3.726279	-84.045304	-19.460138	0.000000	
18.496960	13.629942	1042.150913	-16.075593	85.996218	3.528160	-84.301270	-16.972024	0.000000	
19.460739	13.900120	1044.394932	-17.192720	85.780317	3.551155	-83.966885	-18.021459	0.000000	
17.909651	13.705613	1040.941046	-13.059108	86.131053	3.277322	-84.496212	-14.097040	0.000000	
10.535679	12.967428	1033.533890	1.020673	88.423865	1.765024	-86.914239	-0.529221	0.000000	
12.627187	13.252972	1035.775677	-2.940047	87.712343	2.287082	-86.154183	-4.369220	0.000000	
18.683069	14.858515	1041.975902	-13.269573	85.950801	3.066682	-84.281732	-14.347915	0.000000	
19.740343	15.309262	1043.701924	-14.990018	85.671993	3.177688	-83.933357	-15.998169	0.000000	
21.110468	15.720559	1044.040808	-16.926572	85.152085	3.320913	-83.482025	-17.870208	0.000000	
18.092612	15.246337	1040.593419	-10.769412	85.962751	2.743596	-84.372305	-11.984178	0.000000	
8.072876	13.640010	1029.912276	8.604446	89.122299	1.029474	-87.761077	6.798648	0.000000	
14.489818	14.898230	1036.109283	-2.932443	87.144132	1.914856	-85.679155	-4.449832	0.000000	
20.291713	16.589782	1043.007795	-13.563222	85.409208	2.928681	-83.766403	-14.709198	0.000000	
20.556426	16.769858	1041.448282	-13.347804	85.200496	2.907507	-83.704516	-14.532864	0.000000	
22.016995	17.227078	1043.172496	-16.317623	84.584064	3.124684	-83.055105	-17.381690	0.000000	
19.080544	17.019037	1040.243705	-10.288962	85.636314	2.459617	-84.139883	-11.621687	0.000000	
12.216994	16.154945	1030.414612	3.358423	87.535451	1.388743	-86.404324	1.566817	0.000000	
11.097799	16.317416	1030.420209	5.728673	87.876957	1.068469	-86.674341	3.858232	0.000000	
21.426210	17.971096	1041.099224	-13.946836	84.807693	2.800589	-83.401896	-15.177588	0.000000	
20.713303	18.141415	1039.545256	-12.396159	84.875173	2.601199	-83.551827	-13.716566	0.000000	
22.609753	19.042674	1041.267792	-15.278157	84.230156	2.801490	-82.897649	-16.511561	0.000000	
17.163382	18.063139	1034.891122	-5.679370	85.899887	1.932443	-84.721737	-7.280019	0.000000	
11.215024	17.337096	1027.477315	6.807313	87.764614	0.777404	-86.817400	4.865722	0.000000	
14.017807	17.987919	1030.755553	0.305791	86.709557	1.443396	-85.672779	-1.495295	0.000000	
22.200636	19.705620	1038.673668	-14.158081	84.388493	2.510678	-83.233063	-15.508210	0.000000	
22.601879	19.621509	1039.017423	-15.019547	84.143147	2.600106	-82.991321	-16.327922	0.000000	
22.470891	19.758760	1037.287016	-15.451511	83.930799	2.523788	-82.916654	-16.777665	0.000000	
15.422171	18.757868	1029.014930	-1.459081	86.253722	1.331678	-85.449960	-3.253541	0.000000	
8.777603	17.455069	1020.912148	10.852388	87.964912	0.209075	-87.432868	8.857972	0.000000	
17.418630	19.314384	1028.658575	-5.507202	85.272450	1.596717	-84.634254	-7.220081	0.000000	
21.623354	20.243056	1032.617618	-13.471658	84.033151	2.174516	-83.341102	-14.958857	0.000000	
22.334578	20.206897	1032.959506	-14.850015	83.755970	2.299512	-83.084074	-16.286587	0.000000	
21.176532	20.198268	1030.194256	-12.525691	84.039060	1.936430	-83.516696	-14.071452	0.000000	
11.965260	18.515933	1019.509571	4.435405	86.523512	0.470379	-86.313685	2.518706	0.000000	
11.297893	18.381012	1016.048424	6.112855	86.714545	0.194632	-86.756190	4.188459	0.000000	
20.167843	20.063550	1025.699587	-11.064715	84.077061	1.818833	-83.861091	-12.697812	0.000000	
22.730640	20.664299	1027.935374	-15.541503	83.274878	2.090271	-83.039908	-17.059879	0.000000	
22.555026	20.577779	1027.416270	-15.930239	83.182558	2.034553	-82.982019	-17.441726	0.000000	
15.694402	18.967039	1017.409431	-3.061593	85.411394	0.907978	-85.602798	-4.868008	0.000000	
8.379442	18.009194	1008.964964	10.715811	87.128168	-0.375164	-87.607388	8.806305	0.000000	
14.542948	19.046022	1016.378232	-1.640655	85.476567	0.727164	-85.689407	-3.478442	0.000000	
20.084763	19.768884	1021.021668	-12.405101	83.500841	1.590285	-83.672780	-14.048861	0.000000	
22.437475	20.411398	1023.435798	-16.752885	82.969724	2.095368	-83.087296	-18.301087	0.000000	
18.773556	19.941277	1018.264599	-11.675448	83.683771	1.655636	-84.004600	-13.377633	0.000000	
12.298710	18.552217	1009.984227	0.678596	85.577883	0.389528	-86.202542	-1.171561	0.000000	
11.327919	18.148483	1008.430039	1.752953	85.672654	0.224479	-86.374148	-0.084275	0.000000	
16.879609	19.404592	1013.772453	-10.130506	83.781020	1.339902	-84.364450	-11.879653	0.000000	
19.315897	19.742175	1016.355116	-15.341168	83.186376	1.682832	-83.701494	-16.996980	0.000000	
19.717969	19.751866	1015.140438	-16.548806	83.092200	1.714771	-83.730158	-18.206507	0.000000	
14.140250	18.859953	1007.899038	-6.691375	84.430750	0.825692	-85.343627	-8.501646	0.000000	
8.911719	17.614098	1003.077050	2.606613	85.917118	-0.058370	-86.939448	0.800547	0.000000	
16.188978	18.533324	1009.790036	-11.990551	83.593017	1.219100	-84.469507	-13.716898	0.000000	
19.687432	19.233383	1013.753659	-19.007961	82.446845	1.743364	-83.205331	-20.627396	0.000000	
18.451337	18.560296	1012.546312	-17.331174	82.815702	1.561527	-83.599396	-18.957714	0.000000	
12.778330	17.404453	1005.474643	-7.733268	84.214054	0.475080	-85.255993	-9.475184	0.000000	
8.307305	16.472329	1000.478420	1.264687	85.549020	-0.157991	-86.761400	-0.472515	0.000000	
9.763910	16.494267	1000.292857	-2.053073	85.054588	-0.179109	-86.364766	-3.790471	0.000000	
17.483207	17.855663	1008.564658	-17.035386	82.697692	1.263854	-83.755457	-18.696872	0.000000	
16.328693	17.316867	1006.489676	-15.057159	83.129920	0.937267	-84.291585	-16.738234	0.000000	
10.699640	16.159454	999.072260	-4.899044	84.561345	-0.131465	-86.028169	-6.623920	0.000000	
8.220447	15.472416	996.140906	-0.465732	85.122770	-0.548244	-86.702964	-2.151835	0.000000	
14.784250	16.339210	1001.298806	-12.953160	83.201390	0.530361	-84.709315	-14.664740	0.000000	
17.174911	16.497379	1003.707425	-17.560677	82.549027	0.837341	-83.991614	-19.230838	0.000000	
16.561605	16.185419	1002.152472	-16.916892	82.672589	0.797685	-84.209674	-18.599547	0.000000	
14.952240	15.550962	999.730401	-13.516570	82.899739	0.166398	-84.548670	-15.205793	0.000000	
15.166026	15.817353	999.728817	-13.214499	83.325446	0.096048	-84.986624	-14.918614	0.000000	
16.194873	15.521462	1000.068592	-15.799802	82.619698	0.344614	-84.310041	-17.482347	0.000000	
15.401939	14.986173	999.205433	-15.027175	82.894433	0.234775	-84.612619	-16.693446	0.000000	
16.200116	15.173892	999.200955	-16.835959	82.434406	0.322890	-84.197420	-18.514289	0.000000	
14.514840	14.586038	996.436708	-13.953735	82.991026	-0.076411	-84.892525	-15.637763	0.000000	
15.574544	14.992273	997.989953	-15.674095	82.500384	0.069719	-84.329574	-17.361354	0.000000	
15.536317	14.599212	996.776484	-16.236726	82.498775	0.065658	-84.427511	-17.923825	0.000000	
13.984776	14.274595	995.225999	-13.395834	83.114548	-0.204846	-85.089071	-15.077662	0.000000	
16.020990	14.606453	997.118391	-17.529072	82.282444	0.047393	-84.209148	-19.214446	0.000000	
15.755423	14.163372	996.943988	-17.358574	82.464505	-0.043080	-84.391415	-19.021708	0.000000	
15.483254	14.335386	997.464903	-16.625333	82.678771	-0.148304	-84.547254	-18.286770	0.000000	
14.476856	13.665838	996.431329	-15.853168	82.801254	-0.151580	-84.700388	-17.492263	0.000000	
13.932597	13.881037	996.259477	-14.732532	82.957477	-0.455316	-84.841020	-16.382416	0.000000	
13.408971	13.657984	995.224319	-14.432751	82.988357	-0.440238	-84.929954	-16.084816	0.000000	
13.938553	13.086145	996.429136	-15.036438	82.955918	-0.420574	-84.825480	-16.640000	0.000000	
15.179929	13.808956	997.810443	-18.135534	82.459362	-0.186054	-84.281301	-19.764632	0.000000	
13.760756	13.309186	996.430857	-15.639600	82.952933	-0.474709	-84.812327	-17.257855	0.000000	
15.444371	13.414226	997.978873	-18.567415	82.458235	-0.222316	-84.280949	-20.171996	0.000000	
14.601695	13.137237	998.675539	-17.102753	82.583308	-0.327570	-84.300599	-18.676325	0.000000	
13.846484	12.869925	996.426198	-16.157826	82.739614	-0.601463	-84.603463	-17.753281	0.000000	
13.669446	12.689679	997.465470	-16.071484	82.768928	-0.599271	-84.535564	-17.638931	0.000000	
12.473942	12.062123	995.044919	-13.878488	83.353294	-0.872720	-85.259154	-15.440558	0.000000	
14.111818	12.252306	997.805840	-16.804827	82.675928	-0.599631	-84.438666	-18.343552	0.000000	
14.468184	12.037647	997.802238	-17.839848	82.672184	-0.564912	-84.455256	-19.368845	0.000000	
15.350069	11.955697	998.660845	-18.829725	82.397115	-0.509903	-84.157431	-20.339492	0.000000	
14.951483	11.772954	999.528366	-18.398733	82.367137	-0.543831	-84.032705	-19.881090	0.000000	
13.224141	11.185648	995.899159	-15.258703	83.016151	-0.926947	-84.890432	-16.764529	0.000000	
13.442543	11.055634	995.549674	-15.302461	83.138087	-0.981472	-85.054746	-16.806755	0.000000	
14.907334	10.627339	998.654917	-18.661644	82.488403	-0.726929	-84.224462	-20.096667	0.000000	
14.507253	10.227513	995.883760	-17.199627	82.557400	-0.929930	-84.503377	-18.659740	0.000000	
14.595923	10.095244	996.228821	-17.286057	82.677914	-0.911286	-84.600345	-18.732867	0.000000	
14.158336	9.518797	995.363323	-16.986971	82.648742	-0.967995	-84.619247	-18.415475	0.000000	
14.237450	9.473913	996.052597	-16.900260	82.649495	-1.127510	-84.566448	-18.313711	0.000000	
14.238842	9.208654	996.743952	-17.202350	82.708037	-1.108586	-84.567150	-18.589717	0.000000	
15.128238	8.647169	995.522692	-18.669725	82.553563	-1.059579	-84.564885	-20.053853	0.000000	
15.391045	8.915361	996.387383	-19.572939	82.247078	-1.058164	-84.199384	-20.958747	0.000000	
14.996380	8.068319	996.559471	-18.497802	82.311271	-1.076080	-84.227174	-19.828729	0.000000	
16.361199	7.994172	997.413206	-20.565177	82.093487	-1.075481	-84.014182	-21.881018	0.000000	
14.724857	7.628960	995.170707	-18.328608	82.676541	-1.348386	-84.695348	-19.660479	0.000000	
14.499777	7.317704	995.169025	-18.070995	82.647451	-1.492107	-84.653568	-19.384098	0.000000	
15.739938	7.285283	996.026390	-20.008654	82.217460	-1.330396	-84.219533	-21.311676	0.000000	
14.147370	6.474097	994.647033	-17.384177	82.559732	-1.601760	-84.589511	-18.655743	0.000000	
17.284689	6.992524	998.090302	-23.067166	81.934006	-1.256518	-83.849850	-24.317193	0.000000	
16.575955	6.363545	997.052556	-21.000985	82.033472	-1.401584	-83.996179	-22.233972	0.000000	
15.998728	6.184050	996.707922	-20.743769	82.094470	-1.563991	-84.053655	-21.973210	0.000000	
15.190781	5.598884	996.014291	-18.505434	82.467297	-1.922752	-84.440447	-19.707689	0.000000	
14.619617	5.245419	993.418820	-17.862535	82.561950	-2.054517	-84.722025	-19.089933	0.000000	
14.082698	4.885041	992.552973	-16.312915	82.720238	-2.270758	-84.924369	-17.524258	0.000000	
13.104779	4.389074	991.689563	-14.462697	83.120862	-2.522779	-85.346274	-15.645024	0.000000	
16.735310	4.823009	995.130739	-20.920378	81.887338	-2.017513	-84.019010	-22.107480	0.000000	
14.160571	3.955945	992.543696	-15.712108	82.845546	-2.558013	-85.055806	-16.866573	0.000000	
17.398871	4.126436	994.947798	-22.430929	81.822416	-2.073834	-84.006482	-23.590335	0.000000	
17.523193	3.861698	994.250259	-21.914677	81.766005	-2.272406	-84.015145	-23.072137	0.000000	
14.420209	3.033890	991.494709	-16.103346	82.816192	-2.812925	-85.130049	-17.225972	0.000000	
15.394064	2.783392	992.351282	-18.861289	82.503338	-2.777822	-84.797043	-19.976842	0.000000	
14.102749	2.237928	991.315731	-16.148980	82.665451	-3.137492	-84.975246	-17.229918	0.000000	
17.293306	2.715128	992.509503	-21.617920	81.830445	-2.690091	-84.213047	-22.747363	0.000000	
16.227025	2.219925	991.300096	-19.897137	82.139835	-2.979052	-84.566582	-21.010209	0.000000	
16.977457	1.831347	992.330508	-21.621217	82.012477	-2.978503	-84.393676	-22.704671	0.000000	
18.220352	1.536692	993.705842	-24.550601	81.426436	-2.817105	-83.758387	-25.605673	0.000000	
15.914984	1.337506	990.602500	-20.030134	82.291238	-3.215166	-84.760745	-21.108710	0.000000	
17.551637	1.178286	993.013837	-23.561757	81.763273	-3.051304	-84.117630	-24.606898	0.000000	
16.666130	0.907896	991.459049	-22.444026	81.979613	-3.251804	-84.416397	-23.501551	0.000000	
17.066013	1.045854	992.496282	-23.821783	81.791877	-3.160848	-84.162450	-24.873811	0.000000	
15.607338	0.678981	990.772749	-21.411858	82.193995	-3.360761	-84.630744	-22.462522	0.000000	
15.611909	0.680991	991.639482	-22.359615	82.158449	-3.270103	-84.521875	-23.399461	0.000000	
15.345768	0.637503	991.813461	-22.748199	82.337622	-3.341795	-84.672782	-23.784830	0.000000	
13.398820	0.353575	990.439845	-19.691721	82.953017	-3.593970	-85.300161	-20.714624	0.000000	
15.393505	0.952529	993.027265	-24.643089	82.176750	-3.268805	-84.410943	-25.682745	0.000000	
11.897123	0.300797	989.237438	-18.703035	83.166736	-3.793821	-85.533755	-19.736378	0.000000	
12.784594	0.839815	992.179073	-21.327706	82.821317	-3.537571	-84.984542	-22.356115	0.000000	
14.427626	1.077721	994.075532	-24.556974	82.415226	-3.194813	-84.508141	-25.576958	0.000000	
14.825884	1.302818	995.459427	-25.761890	82.318715	-3.102633	-84.317248	-26.765630	0.000000	
14.031116	1.119030	996.329882	-25.374843	82.559727	-3.154503	-84.441413	-26.344133	0.000000	
9.907984	0.725775	992.370893	-18.314135	83.735312	-3.857811	-85.726646	-19.308765	0.000000	
9.422580	1.117607	993.416286	-18.011031	83.855179	-3.800911	-85.730508	-19.006320	0.000000	
10.004517	0.904189	994.624630	-19.820700	83.726035	-3.620738	-85.530299	-20.791626	0.000000	
11.556411	1.363043	997.041510	-23.436714	83.106114	-3.330835	-84.790450	-24.395762	0.000000	
12.399339	1.328696	998.248010	-25.332055	83.098456	-3.185997	-84.728630	-26.263997	0.000000	
9.788059	0.815992	997.396939	-21.543494	83.624388	-3.526685	-85.180663	-22.458423	0.000000	
8.980435	1.074257	995.669228	-19.648341	83.966038	-3.851187	-85.624729	-20.607140	0.000000	
9.482658	0.636733	997.052858	-21.113675	83.867564	-3.491471	-85.436496	-22.024716	0.000000	
11.114944	1.052527	998.947166	-24.342587	83.522944	-3.363365	-85.022673	-25.240161	0.000000	
10.366820	1.131607	999.993267	-23.652490	83.583327	-3.306798	-84.952961	-24.528943	0.000000	
7.443331	0.221585	996.196871	-18.660813	84.359052	-3.868812	-85.887735	-19.557333	0.000000	
10.674597	0.870432	1001.373966	-24.815923	83.577995	-3.322765	-84.848835	-25.643446	0.000000	
9.887566	0.601361	1000.860312	-24.602579	83.758493	-3.288713	-85.028197	-25.427944	0.000000	
10.462531	0.431525	1000.854918	-25.593857	83.574150	-3.271842	-84.876698	-26.408986	0.000000	
9.178999	0.196354	1001.381997	-23.828426	84.062502	-3.394973	-85.248199	-24.619343	0.000000	
7.495017	-0.215462	999.831407	-21.461894	84.494441	-3.720114	-85.716694	-22.266222	0.000000	
8.825502	-0.071551	1001.729049	-23.700107	84.183043	-3.448286	-85.319470	-24.467991	0.000000	
8.165860	-0.473387	1001.904888	-23.615572	84.211929	-3.502568	-85.296524	-24.356962	0.000000	
8.565143	-0.203456	1003.289241	-24.992769	84.084323	-3.392609	-85.075058	-25.712253	0.000000	
8.924422	-0.289593	1004.327004	-25.681780	84.171412	-3.211463	-85.094750	-26.367755	0.000000	
6.714375	-0.793998	1001.395488	-22.325639	84.698141	-3.539314	-85.743720	-23.062839	0.000000	
7.023822	-0.967436	1001.738480	-22.843076	84.787113	-3.521042	-85.820781	-23.562045	0.000000	
3.672105	-1.352446	998.125970	-17.505301	85.622090	-3.759270	-86.776673	-18.274942	0.000000	
6.377554	-0.969787	1001.920468	-23.404067	84.811808	-3.270802	-85.793792	-24.117698	0.000000	
5.484041	-0.890697	1001.578491	-21.767293	85.211154	-3.520876	-86.171478	-22.495891	0.000000	
5.936006	-1.062371	1002.615835	-23.188965	85.022782	-3.287075	-85.920549	-23.881812	0.000000	
6.517332	-0.612928	1004.001345	-25.168773	84.710958	-3.052113	-85.524972	-25.847012	0.000000	
3.997054	-1.523121	1002.109136	-20.735715	85.543297	-3.376921	-86.374451	-21.419592	0.000000	
5.774017	-1.056793	1003.485890	-25.257890	85.011392	-3.054297	-85.826327	-25.923861	0.000000	
5.512888	-0.977390	1005.568453	-24.695704	85.010714	-2.869655	-85.634964	-25.317212	0.000000	
2.284729	-1.887504	1002.121483	-20.178542	85.934188	-3.377681	-86.667588	-20.842943	0.000000	
4.149510	-1.381789	1005.576432	-24.698430	85.158501	-2.960627	-85.705186	-25.297164	0.000000	
3.930210	-1.605718	1005.577370	-24.139362	85.523293	-2.942253	-86.055639	-24.728680	0.000000	
4.773870	-1.416777	1006.958085	-26.809417	85.149046	-2.797831	-85.614070	-27.358019	0.000000	
3.096889	-1.874530	1005.063314	-23.969236	85.733946	-2.961988	-86.262322	-24.556636	0.000000	
3.674255	-1.735099	1006.618932	-25.820412	85.392790	-2.834479	-85.823499	-26.366718	0.000000	
-2.219214	-2.939303	999.549864	-15.318261	87.308616	-3.883863	-88.010761	-15.972965	0.000000	
-1.011119	-2.840838	1002.316725	-18.202173	86.659724	-3.414071	-87.190220	-18.813874	0.000000	
3.689382	-2.391428	1007.137327	-27.804906	85.261857	-2.657189	-85.650567	-28.287431	0.000000	
1.474532	-2.457670	1006.632085	-24.747314	85.754851	-2.943124	-86.059454	-25.260081	0.000000	
1.301826	-2.587855	1005.594120	-24.921446	85.935918	-2.945887	-86.317894	-25.451215	0.000000	
1.479934	-2.763512	1007.150529	-25.825674	85.779682	-2.889648	-86.040514	-26.301161	0.000000	
-2.499521	-3.682860	1002.324169	-19.241504	87.104820	-3.452756	-87.550323	-19.803526	0.000000	
1.000270	-3.115604	1005.767307	-26.043938	85.839144	-2.929787	-86.190124	-26.533586	0.000000	
0.115752	-3.301845	1006.638281	-25.182770	86.112343	-2.999132	-86.338326	-25.645462	0.000000	
-0.670152	-3.261187	1005.780647	-24.839716	86.444680	-2.911397	-86.697860	-25.327823	0.000000	
0.745172	-3.155857	1007.502373	-28.026654	86.129971	-2.766333	-86.317502	-28.455001	0.000000	
1.241895	-3.149326	1009.059836	-30.136659	85.605416	-2.514130	-85.693264	-30.503759	0.000000	
0.757631	-3.241107	1009.582650	-30.008207	85.967183	-2.512851	-85.980715	-30.356051	0.000000	
-1.321905	-3.704844	1008.382201	-26.607150	86.402113	-2.782744	-86.397740	-26.992631	0.000000	
-2.465980	-4.064027	1007.003458	-25.834832	86.706406	-2.893764	-86.753384	-26.241517	0.000000	
-3.527477	-4.118924	1005.971824	-23.854409	87.227753	-3.002009	-87.300590	-24.295865	0.000000	
-2.150088	-3.883422	1009.082003	-27.470668	86.697390	-2.674992	-86.584938	-27.820293	0.000000	
-1.748919	-3.875756	1010.118476	-29.237221	86.749918	-2.584359	-86.571187	-29.541863	0.000000	
-4.272744	-4.346627	1008.921003	-24.672660	87.279757	-2.907056	-87.057801	-25.025574	0.000000	
-5.238889	-4.486826	1008.062810	-23.640222	87.463823	-2.908768	-87.260064	-24.014204	0.000000	
-3.693799	-4.337676	1009.437002	-26.439014	87.060899	-2.799910	-86.829070	-26.763536	0.000000	
-2.624071	-4.593535	1012.547858	-29.065998	86.957595	-2.472401	-86.521976	-29.264059	0.000000	
-3.590244	-4.733438	1012.035884	-28.291872	87.079734	-2.473614	-86.632469	-28.505776	0.000000	
-4.031204	-4.696352	1012.213205	-27.343467	87.052250	-2.454623	-86.565835	-27.566019	0.000000	
-2.389102	-4.807269	1013.760064	-31.307228	86.794986	-2.221275	-86.272062	-31.429018	0.000000	
-3.719089	-5.131877	1013.074149	-28.852726	87.045667	-2.436600	-86.503726	-29.008943	0.000000	
-4.645697	-5.320307	1013.600060	-27.431426	87.351541	-2.452462	-86.709728	-27.581653	0.000000	
-4.418833	-5.802337	1013.077225	-27.993286	87.228915	-2.401213	-86.645594	-28.123378	0.000000	
-4.556058	-5.629478	1014.117382	-27.647367	87.350365	-2.433933	-86.669698	-27.763827	0.000000	
-3.354036	-6.011797	1015.320201	-30.620860	87.036159	-2.219114	-86.324917	-30.639397	0.000000	
-3.657588	-6.103239	1014.630904	-30.061328	87.038052	-2.148889	-86.368107	-30.103140	0.000000	
-2.984818	-6.363300	1016.532266	-31.612099	87.030299	-1.859200	-86.237540	-31.559550	0.000000	
-3.605014	-7.075132	1015.146269	-30.451961	87.156737	-2.059770	-86.444480	-30.419356	0.000000	
-3.957579	-6.945552	1014.976726	-30.064050	87.248340	-2.059746	-86.529549	-30.049279	0.000000	
-6.614929	-7.857126	1011.872121	-24.770062	88.146142	-2.512009	-87.532538	-24.856560	0.000000	
-6.479064	-7.942885	1011.871308	-25.287449	88.083498	-2.458882	-87.478234	-25.363140	0.000000	
-3.907915	-7.698546	1015.493007	-29.979520	87.278451	-1.987836	-86.518353	-29.909569	0.000000	
-3.767151	-8.358099	1014.797166	-30.412941	87.186481	-1.919250	-86.494292	-30.320155	0.000000	
-3.810782	-8.450746	1015.317238	-29.766099	87.279348	-1.863697	-86.539446	-29.662837	0.000000	
-4.198782	-8.983208	1014.453534	-29.337956	87.552749	-1.776531	-86.860501	-29.235907	0.000000	
-7.650794	-9.547870	1009.278476	-22.536175	88.305734	-2.304077	-87.855995	-22.611004	0.000000	
-5.478343	-9.393786	1012.036689	-26.626532	87.836058	-1.924114	-87.275051	-26.601845	0.000000	
-3.608170	-9.550592	1013.411062	-30.287769	87.126444	-1.512126	-86.561079	-30.170975	0.000000	
-3.867574	-9.862407	1013.585810	-30.159465	87.246855	-1.440447	-86.650728	-30.022068	0.000000	
-3.412916	-9.767870	1013.586545	-31.365771	87.060030	-1.154750	-86.491513	-31.217416	0.000000	
-5.224625	-10.319057	1011.345832	-27.405045	87.589495	-1.354740	-87.104410	-27.337908	0.000000	
-4.824929	-10.270191	1012.382621	-28.567674	87.523718	-1.263573	-86.973192	-28.461860	0.000000	
-3.394891	-10.166005	1012.896651	-31.324170	86.998977	-0.834538	-86.490610	-31.174999	0.000000	
-4.323259	-10.219063	1012.037096	-29.903151	87.094595	-0.943292	-86.606411	-29.793728	0.000000	
-4.449733	-10.659386	1011.343964	-30.034812	87.336075	-0.909731	-86.896983	-29.919346	0.000000	
-5.370791	-10.933680	1010.138310	-28.528575	87.431854	-0.894147	-87.043416	-28.447730	0.000000	
-3.723210	-10.606467	1011.517454	-31.930014	86.752971	-0.481290	-86.346050	-31.790911	0.000000	
-4.785605	-11.055386	1010.482297	-30.769721	87.150163	-0.698569	-86.767778	-30.649462	0.000000	
-4.031006	-10.785495	1011.345746	-31.629401	86.904913	-0.499637	-86.493737	-31.488997	0.000000	
-6.053086	-11.288484	1009.281497	-29.048212	87.396617	-0.557382	-87.043799	-28.966325	0.000000	
-9.910797	-12.166830	1003.759478	-21.170752	88.608204	-1.299920	-88.509733	-21.224152	0.000000	
-6.623527	-11.512424	1007.726622	-28.231773	87.581559	-0.596637	-87.328650	-28.187116	0.000000	
-4.131685	-11.084789	1009.793029	-33.830202	86.773090	-0.040403	-86.489385	-33.698995	0.000000	
-4.000743	-10.819745	1009.620240	-33.742648	86.410992	-0.040628	-86.152681	-33.632633	0.000000	
-5.941878	-11.234338	1007.381378	-30.773637	87.056565	-0.223447	-86.875129	-30.735225	0.000000	
-7.444858	-11.646772	1005.484905	-28.019017	87.490487	-0.423494	-87.385186	-28.029054	0.000000	
-6.420645	-11.061388	1006.175970	-29.912475	87.271282	-0.117820	-87.164963	-29.924841	0.000000	
-7.121626	-11.508515	1005.660096	-29.483351	87.060012	-0.137930	-86.960082	-29.488119	0.000000	
-9.818785	-11.441404	1001.003778	-24.963948	87.955019	-0.503647	-88.103854	-25.110397	0.000000	
-10.525735	-11.847878	1001.352933	-23.930898	88.048438	-0.574459	-88.127089	-24.047496	0.000000	
-9.850719	-11.835430	1000.311679	-25.784525	87.769755	-0.363606	-87.977270	-25.925429	0.000000	
-8.298893	-10.893923	1004.117609	-29.268790	87.299964	0.056016	-87.265641	-29.352830	0.000000	
-8.420118	-10.932192	1002.908117	-30.433783	87.022705	0.159026	-87.086695	-30.546723	0.000000	
-5.581225	-10.417178	1005.664069	-35.685969	86.186106	0.681817	-86.176701	-35.716578	0.000000	
-8.990536	-10.713446	1002.048565	-30.089748	87.265205	0.175422	-87.370787	-30.241146	0.000000	
-10.575478	-11.035705	999.808264	-27.852440	87.514983	0.063493	-87.725677	-28.051264	0.000000	
-11.195280	-10.689053	999.987994	-26.989910	87.698469	0.047140	-87.858763	-27.203279	0.000000	
-10.335160	-10.628861	1001.371951	-30.824407	87.257355	0.476789	-87.346109	-30.999422	0.000000	
-10.823183	-10.501451	1001.202747	-29.962670	87.532407	0.423640	-87.608110	-30.150962	0.000000	
-11.343943	-10.281976	1000.863707	-30.264555	87.408311	0.547759	-87.484338	-30.474828	0.000000	
-14.753311	-11.023255	998.457859	-24.625351	88.395926	0.043573	-88.490789	-24.856730	0.000000	
-12.447765	-10.336312	1001.564247	-29.360356	87.832370	0.496170	-87.785257	-29.548250	0.000000	
-11.643220	-10.413461	1003.637714	-32.332468	87.395251	0.731072	-87.214967	-32.445911	0.000000	
-12.965856	-10.158521	1001.744738	-30.481166	87.734307	0.656562	-87.642671	-30.671889	0.000000	
-15.533574	-10.759332	1000.546367	-26.434563	88.443364	0.297430	-88.311377	-26.629567	0.000000	
-13.580384	-10.605614	1003.998314	-31.170994	87.697396	0.678000	-87.376609	-31.266963	0.000000	
-15.442319	-10.847938	1004.182437	-28.070228	88.493290	0.447748	-88.049276	-28.159987	0.000000	
-14.018553	-10.611660	1006.773419	-31.600759	87.963704	0.809537	-87.378028	-31.609554	0.000000	
-14.635977	-11.055104	1005.389392	-31.172855	88.116874	0.662419	-87.615121	-31.201591	0.000000	
-14.671476	-11.365453	1006.775578	-31.819389	88.142281	0.843752	-87.518830	-31.784638	0.000000	
-16.223846	-12.000165	1005.742430	-29.107979	88.636154	0.537869	-88.012374	-29.085114	0.000000	
-15.026390	-11.945933	1008.679146	-31.733760	88.231157	0.793594	-87.423520	-31.609006	0.000000	
-15.512944	-12.126631	1009.027679	-31.347071	88.624697	0.740871	-87.756558	-31.205091	0.000000	
-16.262934	-12.533888	1008.685015	-29.840368	88.811331	0.686869	-87.929411	-29.699032	0.000000	
-15.767596	-13.015968	1010.932756	-31.477850	88.772413	0.923060	-87.724651	-31.227823	0.000000	
-16.476090	-13.375443	1010.934884	-30.918986	88.713054	0.779199	-87.626429	-30.654988	0.000000	
-16.342611	-13.335247	1012.666937	-30.787971	88.712083	0.909002	-87.484338	-30.476797	0.000000	
-14.298242	-13.662394	1014.210639	-35.484616	88.361579	1.231047	-87.119885	-35.044385	0.000000	
-15.450680	-14.296426	1014.387795	-33.245870	88.641227	1.053083	-87.316745	-32.796345	0.000000	
-13.498565	-14.186807	1016.454090	-37.121753	88.293590	1.395693	-86.906591	-36.550520	0.000000	
-15.301202	-14.734728	1014.215336	-34.152376	88.576056	1.337782	-87.275470	-33.671336	0.000000	
-17.115328	-15.596040	1014.050073	-30.838251	89.433886	1.124056	-88.035132	-30.360827	0.000000	
-15.998031	-16.071581	1015.081462	-32.949481	88.941562	1.428506	-87.523232	-32.384382	0.000000	
-13.605502	-15.783043	1018.357571	-37.555860	88.257870	1.827227	-86.704653	-36.822053	0.000000	
-14.971794	-16.503907	1017.325221	-35.275910	88.840343	1.718131	-87.289036	-34.577714	0.000000	
-16.378443	-17.135120	1015.255555	-33.039207	89.120606	1.642133	-87.663689	-32.408568	0.000000	
-16.689415	-17.317229	1016.122332	-32.565159	89.181813	1.608408	-87.632645	-31.905035	0.000000	
-15.925037	-18.104537	1017.846977	-34.720615	88.960150	1.878207	-87.309854	-33.926614	0.000000	
-15.610276	-18.321275	1016.805864	-34.851291	89.081919	1.965205	-87.535570	-34.077075	0.000000	
-16.091121	-18.812334	1017.846649	-34.895366	89.049169	2.002351	-87.388185	-34.059294	0.000000	
-16.162880	-19.163591	1017.156633	-35.500411	88.955032	2.250233	-87.350425	-34.657311	0.000000	
-15.276059	-19.333516	1019.401162	-37.394614	88.553288	2.414858	-86.814543	-36.431591	0.000000	
-13.840594	-19.578303	1020.779568	-41.531410	88.233243	2.898020	-86.463749	-40.422624	0.000000	
-15.479841	-20.302394	1019.400546	-38.647864	88.546437	2.591151	-86.796658	-37.607684	0.000000	
-15.519961	-20.698577	1018.360247	-38.563734	88.608066	2.588207	-86.942827	-37.540831	0.000000	
-16.745187	-21.548780	1016.981713	-37.059612	88.733413	2.602330	-87.115269	-36.064703	0.000000	
-15.994426	-21.674808	1018.360701	-38.394531	88.637430	2.676180	-86.945482	-37.320874	0.000000	
-16.295777	-22.469482	1016.281682	-37.924788	88.822074	2.652586	-87.286785	-36.889468	0.000000	
-14.909896	-22.894676	1018.350662	-41.716144	88.170532	3.029584	-86.547602	-40.515780	0.000000	
-14.204772	-23.112569	1020.075849	-42.447621	88.167586	3.104787	-86.438459	-41.153728	0.000000	
-16.583336	-24.279488	1015.585015	-38.749720	88.696522	2.808289	-87.206610	-37.626490	0.000000	
-17.423558	-24.777741	1013.857025	-35.951663	89.192589	2.698669	-87.796688	-34.901846	0.000000	
-15.514233	-24.800112	1015.749715	-40.086442	88.541331	3.022139	-87.098868	-38.907758	0.000000	
-14.179176	-25.226345	1015.912443	-42.714986	87.776238	3.216457	-86.405668	-41.465488	0.000000	
-12.887397	-25.568201	1016.769865	-44.610722	87.587976	3.521360	-86.219596	-43.276810	0.000000	
-12.531119	-25.873635	1016.419702	-45.042424	87.435971	3.555559	-86.119146	-43.699307	0.000000	
-13.504092	-26.764985	1013.650091	-42.849993	87.869857	3.298795	-86.726485	-41.604240	0.000000	
-14.601569	-27.793228	1011.229713	-40.226506	88.243781	3.222076	-87.241058	-39.050469	0.000000	
-11.142596	-27.668405	1013.113033	-46.169400	87.194854	3.741678	-86.236561	-44.852274	0.000000	
-12.602712	-28.217677	1011.908345	-42.810937	87.540227	3.561521	-86.598637	-41.555307	0.000000	
-12.246461	-29.096154	1011.207871	-43.416875	87.297419	3.504187	-86.437729	-42.134008	0.000000	
-15.658691	-30.013643	1003.951138	-35.540048	88.239197	2.811235	-87.804194	-34.535581	0.000000	
-10.639545	-29.740928	1008.078949	-44.755263	86.722619	3.781607	-86.222820	-43.554037	0.000000	
-9.171128	-30.298623	1008.067229	-47.212407	86.382136	4.011866	-85.967787	-45.960973	0.000000	
-7.842060	-30.329863	1008.058313	-48.892172	85.984491	4.171875	-85.648051	-47.625971	0.000000	
-10.009049	-31.500588	1002.871602	-43.599546	86.612984	3.750160	-86.592392	-42.525111	0.000000	
-9.298646	-32.068877	1003.210162	-44.548319	86.368245	3.821070	-86.359212	-43.424987	0.000000	
-8.582048	-32.325033	1001.127921	-45.023979	86.187664	3.976809	-86.396977	-43.974384	0.000000	
-7.209279	-32.619741	1000.077675	-46.532610	85.731579	4.062428	-86.107849	-45.511690	0.000000	
-6.845247	-32.880148	999.729937	-47.266051	85.638047	4.257755	-86.064400	-46.246262	0.000000	
-8.303468	-34.041578	994.364982	-43.352225	85.990070	3.888153	-86.796236	-42.489850	0.000000	
-7.148754	-34.030326	994.704680	-44.988741	85.742851	4.102878	-86.583462	-44.121481	0.000000	
-8.296527	-34.525499	991.246645	-42.536633	85.814791	3.880643	-86.890374	-41.770775	0.000000	
-4.572291	-34.310672	992.782506	-48.393194	84.767115	4.435715	-85.912359	-47.618691	0.000000	
-7.413373	-35.045744	988.119738	-42.281052	85.791045	3.801631	-87.188964	-41.612192	0.000000	
-5.719428	-35.156912	986.898063	-45.039384	85.389831	4.136964	-86.985686	-44.451328	0.000000	
-6.165504	-35.426752	983.954670	-43.059462	85.249478	3.916091	-87.075461	-42.554272	0.000000	
-3.810191	-35.445543	985.672352	-47.538606	84.537143	4.364516	-86.336476	-47.024714	0.000000	
-3.540605	-35.481637	982.726791	-47.799087	84.266958	4.339187	-86.333353	-47.426226	0.000000	
-1.769567	-35.463063	982.368449	-50.125093	83.746887	4.515894	-85.936306	-49.812043	0.000000	
-3.270019	-36.405725	980.122903	-47.285929	84.121102	4.296331	-86.427298	-46.973597	0.000000	
-4.158631	-36.191783	976.146553	-44.530569	84.437540	4.056704	-87.049248	-44.351241	0.000000	
-2.023212	-36.256571	977.000045	-48.407430	83.818791	4.485635	-86.463211	-48.277613	0.000000	
-2.688339	-36.568700	973.018442	-46.472061	83.920595	4.226463	-86.880070	-46.464804	0.000000	
-2.248649	-36.785195	971.974288	-46.429985	83.923114	4.170271	-87.000530	-46.458060	0.000000	
-3.394786	-37.099920	967.478371	-44.237093	84.115711	3.945656	-87.533767	-44.385317	0.000000	
-1.092604	-36.721397	968.676841	-48.284498	83.345731	4.232541	-86.764914	-48.531616	0.000000	
-1.129674	-37.027766	966.252570	-47.856318	83.500597	4.262715	-87.138749	-48.190414	0.000000	
0.555598	-36.433732	965.033224	-50.138299	82.950564	4.509845	-86.775878	-50.649482	0.000000	
-0.598994	-36.753071	963.133000	-47.986513	83.262168	4.219873	-87.201799	-48.495051	0.000000	
0.734783	-36.470411	961.741406	-50.097550	82.802968	4.430316	-86.927183	-50.775551	0.000000	
0.249278	-36.562019	959.146887	-48.677554	82.780239	4.317567	-87.108095	-49.424864	0.000000	
0.166163	-36.647971	956.550710	-48.033593	82.996629	4.329996	-87.563722	-48.878549	0.000000	
0.294770	-36.642538	955.508909	-48.551460	82.844894	4.183625	-87.507086	-49.473255	0.000000	
-0.403444	-36.952617	951.184669	-47.133791	82.973971	4.120191	-87.995843	-48.185758	0.000000	
0.083776	-36.505149	950.837861	-47.778751	82.790836	4.209116	-87.863799	-48.907748	0.000000	
-0.494017	-36.198230	948.245211	-46.444297	82.979393	4.043246	-88.266539	-47.650121	0.000000	
1.684024	-35.777680	950.140165	-50.620597	82.297727	4.528788	-87.503254	-51.977000	0.000000	
1.478441	-35.903355	946.334314	-50.882568	82.086849	4.626405	-87.616971	-52.452142	0.000000	
0.897524	-35.509025	944.087828	-49.418348	82.336340	4.425908	-88.053326	-51.047519	0.000000	
-0.376147	-35.736366	940.114267	-47.526464	82.465848	4.309750	-88.483913	-49.233879	0.000000	
-2.058502	-35.615656	937.527783	-45.116334	83.019626	4.036806	-89.215848	-46.803960	0.000000	
0.024501	-34.975640	938.730393	-48.559878	82.432780	4.396393	-88.601916	-50.451593	0.000000	
-1.471585	-35.160139	934.065638	-46.108602	82.837264	4.225607	-89.383631	-48.064100	0.000000	
-2.084926	-34.545604	932.516838	-45.246302	82.779765	4.294862	-89.432215	-47.254853	0.000000	
0.577602	-33.763669	934.929016	-50.886406	81.971419	4.798785	-88.498688	-53.214611	0.000000	
0.757396	-33.800027	932.156765	-51.190103	81.791546	4.738029	-88.577400	-53.694067	0.000000	
-0.959233	-33.813458	928.880834	-48.263821	82.528643	4.661047	-89.576853	-50.729424	0.000000	
-2.331279	-33.688855	925.253735	-46.069076	82.720197	4.385308	-90.048745	-48.560612	0.000000	
-0.908298	-33.054226	926.808037	-49.211235	82.162797	4.745528	-89.383776	-51.909259	0.000000	
-0.989376	-33.094438	925.078120	-49.471463	82.132321	4.794750	-89.511592	-52.283676	0.000000	
-1.698618	-32.879215	923.871771	-48.222592	82.379284	4.685721	-89.851683	-51.012175	0.000000	
-4.129286	-32.810365	919.560286	-44.133213	83.000481	4.374037	-90.796499	-46.804640	0.000000	
-2.880707	-32.879546	917.128691	-46.160103	82.723847	4.563786	-90.809896	-49.132385	0.000000	
-3.453581	-32.176511	916.271673	-45.598573	82.543701	4.580672	-90.662409	-48.607788	0.000000	
-3.374205	-32.041412	915.230148	-45.297430	82.698273	4.381863	-90.938442	-48.341425	0.000000	
-3.673437	-32.083472	912.636781	-45.041141	82.639760	4.447272	-91.112106	-48.193075	0.000000	
-2.295589	-31.270307	913.326193	-48.097658	82.295277	4.770157	-90.751397	-51.553844	0.000000	
-1.804545	-30.996029	912.112915	-49.217877	81.989752	4.856162	-90.566308	-52.866370	0.000000	
-1.093150	-30.323509	911.593440	-50.465816	81.864791	5.034208	-90.524175	-54.306391	0.000000	
-1.931209	-30.552460	909.866967	-48.701315	82.083824	4.941584	-90.883501	-52.454480	0.000000	
-1.176450	-29.834586	908.654426	-49.863225	81.839083	5.082209	-90.780990	-53.846436	0.000000	
-5.914333	-30.233114	902.968883	-41.382266	83.353383	4.376130	-92.730256	-44.763294	0.000000	
-4.408006	-30.080805	902.266379	-44.139212	82.679801	4.497693	-92.148972	-47.862564	0.000000	
-4.888190	-29.729805	901.234659	-43.579450	82.953681	4.585848	-92.527559	-47.317172	0.000000	
-2.182138	-28.815465	902.781408	-48.831414	81.905968	5.070157	-91.378024	-53.111860	0.000000	
-1.081848	-28.671139	902.599765	-50.080324	81.843141	5.069414	-91.395046	-54.515037	0.000000	
-1.875683	-28.191436	900.704080	-48.658432	81.818629	5.030620	-91.509080	-53.079301	0.000000	
-4.164512	-27.984786	896.221413	-45.603544	82.525616	4.897044	-92.608405	-49.945030	0.000000	
-3.736018	-27.803999	895.869201	-45.645860	82.406913	4.663725	-92.538841	-50.022904	0.000000	
-4.787008	-28.034936	895.185462	-44.397886	82.500518	4.734005	-92.647611	-48.651920	0.000000	
-4.436813	-27.277360	893.801078	-44.698234	82.440793	4.713820	-92.745053	-49.109609	0.000000	
-3.863393	-26.783063	894.145627	-46.075479	82.314724	4.768025	-92.604607	-50.662307	0.000000	
-2.926776	-26.239113	894.317105	-48.529812	81.851437	5.017775	-92.127730	-53.431241	0.000000	
-2.930373	-25.972766	892.759183	-47.969708	81.855539	4.925457	-92.291493	-52.912418	0.000000	
-4.167976	-25.764969	891.384425	-45.600609	82.166563	4.834739	-92.703639	-50.348075	0.000000	
-5.541852	-26.083067	888.619918	-43.536153	82.508253	4.506675	-93.287360	-48.158879	0.000000	
-7.095272	-25.748304	887.939571	-40.347755	83.124429	4.329145	-93.954014	-44.625527	0.000000	
-7.000196	-25.344363	886.730429	-41.166572	83.061022	4.433547	-94.015565	-45.634240	0.000000	
-4.828222	-24.835338	889.489869	-45.686635	82.317068	4.813319	-93.026970	-50.608936	0.000000	
-4.170394	-24.075945	888.968748	-46.460097	82.164587	4.812752	-92.951036	-51.556124	0.000000	
-2.664797	-23.308982	890.002394	-49.042034	81.792293	5.083176	-92.520608	-54.446588	0.000000	
-4.524040	-23.815510	888.973239	-45.727032	82.348242	4.831743	-93.134842	-50.747686	0.000000	
-5.988806	-23.565683	886.732765	-42.582692	82.663468	4.578413	-93.630980	-47.343678	0.000000	
-6.658607	-23.303598	885.524703	-41.721853	83.000107	4.361703	-94.095358	-46.451641	0.000000	
-3.461768	-22.389527	889.840696	-47.790301	82.067829	5.103058	-92.796671	-53.107617	0.000000	
-4.882014	-22.271173	887.079603	-44.560582	82.444563	4.830562	-93.417915	-49.637029	0.000000	
-6.082521	-22.199963	887.087748	-41.716800	82.968849	4.671998	-93.932151	-46.435335	0.000000	
-6.746084	-21.940931	886.228235	-40.553652	83.184798	4.617516	-94.224148	-45.183511	0.000000	
-3.562225	-21.335759	888.287349	-45.417506	82.170493	4.995855	-93.066798	-50.594424	0.000000	
-6.130261	-20.919838	887.095467	-41.411399	82.969650	4.745861	-93.929223	-46.171634	0.000000	
-3.654437	-20.543177	888.811856	-45.027081	82.292321	5.034572	-93.143588	-50.175814	0.000000	
-7.513754	-20.939189	885.544190	-37.362133	83.591477	4.405483	-94.706926	-41.677237	0.000000	
-6.750946	-20.489721	885.718025	-38.695951	83.253313	4.745795	-94.355019	-43.203607	0.000000	
-3.535737	-19.486051	888.641477	-43.730968	82.480432	4.929839	-93.380474	-48.793492	0.000000	
-2.333004	-18.946671	890.717318	-45.838573	82.107967	5.345972	-92.822284	-51.081837	0.000000	
-3.349358	-18.779785	888.821153	-43.685422	82.449323	5.253928	-93.338522	-48.777134	0.000000	
-5.350934	-18.627703	886.582918	-38.731661	83.225464	4.876971	-94.320931	-43.320372	0.000000	
-6.323886	-18.503805	885.551483	-37.310459	83.321079	4.768042	-94.476199	-41.772854	0.000000	
-4.208685	-17.601580	887.618381	-40.192304	82.888139	4.969538	-93.903989	-44.981222	0.000000	
-4.432324	-17.300381	889.180592	-39.371254	82.919907	5.028137	-93.762007	-43.999251	0.000000	
-3.198119	-16.801877	889.000661	-40.791038	82.584031	5.099218	-93.480907	-45.636510	0.000000	
-4.035136	-15.884548	888.321302	-38.979208	82.831831	5.207936	-93.777881	-43.689119	0.000000	
-2.622431	-15.430688	890.911176	-41.474740	82.519147	5.410017	-93.245558	-46.394163	0.000000	
-3.599058	-15.043534	889.707684	-39.320469	82.920788	5.284215	-93.760465	-44.058912	0.000000	
-2.892492	-14.244888	891.959225	-40.436458	82.794011	5.504993	-93.428089	-45.251151	0.000000	
-3.826229	-14.120760	889.367702	-38.111145	83.016555	5.268019	-93.889353	-42.773902	0.000000	
-4.762690	-13.295317	889.378352	-35.652895	83.478899	5.181985	-94.349011	-40.061466	0.000000	
-2.686398	-12.920864	891.616306	-39.355123	82.921029	5.400033	-93.619147	-44.138781	0.000000	
-3.004255	-12.264670	892.486756	-38.447524	83.044723	5.332236	-93.647219	-43.120846	0.000000	
-3.182557	-11.870799	892.317372	-37.670742	83.108206	5.351052	-93.724778	-42.283121	0.000000	
-2.785849	-11.293636	892.664417	-38.056266	82.985900	5.442080	-93.576570	-42.735157	0.000000	
-5.145084	-10.835579	890.948960	-32.886234	83.822257	4.995192	-94.545379	-37.041884	0.000000	
-5.010561	-10.304339	892.164024	-33.702391	83.575451	5.123294	-94.149509	-37.940758	0.000000	
-4.223577	-9.544983	892.853302	-34.819865	83.541895	5.107568	-94.089308	-39.211392	0.000000	
-5.328836	-9.338614	893.555802	-33.052411	83.757889	5.092836	-94.188277	-37.216161	0.000000	
-4.493832	-8.890593	894.763621	-34.169799	83.421295	5.149242	-93.738376	-38.443924	0.000000	
-4.102011	-8.005048	897.362368	-35.371725	83.233077	5.227283	-93.283945	-39.729712	0.000000	
-4.104262	-7.873412	897.535898	-35.198805	83.264016	5.210182	-93.300392	-39.537757	0.000000	
-5.835314	-7.889374	895.121876	-31.969744	83.791150	4.866593	-94.030276	-36.033794	0.000000	
-4.787113	-6.735609	898.235816	-33.256182	83.664468	4.946711	-93.631471	-37.415945	0.000000	
-6.342085	-6.835407	895.819323	-30.803268	84.188798	4.566512	-94.369834	-34.770254	0.000000	
-5.986334	-6.349826	898.764729	-31.919727	83.939506	4.788088	-93.807986	-35.931498	0.000000	
-7.322957	-5.969683	899.640317	-29.548300	84.248976	4.577506	-93.978083	-33.285054	0.000000	
-3.614030	-5.177586	902.560277	-36.264809	83.409068	4.885233	-92.976578	-40.670861	0.000000	
-4.764914	-4.794620	903.090643	-34.367795	83.686206	4.852604	-93.157810	-38.570666	0.000000	
-4.324023	-4.523751	903.954327	-35.658957	83.438835	4.889655	-92.823267	-39.979752	0.000000	
-6.549181	-4.152070	902.757144	-31.092127	84.211821	4.479125	-93.663270	-34.996036	0.000000	
-4.953424	-3.825351	905.692831	-34.923737	83.741895	4.770042	-92.942227	-39.136060	0.000000	
-9.525960	-4.267516	900.522015	-26.528201	85.014717	3.849864	-94.599908	-30.005597	0.000000	
-6.200575	-3.134663	906.223728	-32.594913	84.081695	4.612903	-93.185984	-36.586561	0.000000	
-7.180130	-3.098316	905.882259	-31.518450	84.236317	4.361884	-93.330828	-35.413994	0.000000	
-4.711561	-2.193216	910.370758	-35.906570	83.613913	4.639347	-92.343015	-40.119326	0.000000	
-10.597976	-2.914506	904.519429	-25.531117	85.375857	3.844096	-94.518078	-28.858176	0.000000	
-8.741618	-2.365899	907.106802	-29.060278	84.878184	4.099200	-93.816913	-32.702684	0.000000	
-7.279827	-1.867273	910.044267	-31.986195	84.381580	4.409070	-93.061065	-35.845629	0.000000	
-7.331289	-1.559079	911.429796	-32.329138	84.348900	4.322840	-92.881769	-36.187615	0.000000	
-8.619312	-1.308370	910.573460	-29.830183	84.720898	4.126090	-93.297543	-33.491956	0.000000	
-6.849971	-1.247338	914.544039	-33.834041	84.189545	4.383127	-92.423450	-37.731803	0.000000	
-7.832321	-1.172608	915.242037	-31.894563	84.498259	4.171487	-92.630644	-35.589142	0.000000	
-8.399296	-1.044746	913.863990	-30.732475	84.956194	4.277135	-93.235426	-34.377812	0.000000	
-7.654893	-0.904600	916.108341	-32.669284	84.675762	4.245153	-92.748419	-36.418335	0.000000	
-7.790566	-0.779344	917.841809	-32.020922	84.676715	4.285839	-92.567483	-35.652349	0.000000	
-8.145778	-0.651816	919.403381	-31.976673	84.765387	4.289629	-92.486365	-35.552830	0.000000	
-9.213593	-1.103704	918.193965	-30.040196	85.075809	3.982977	-92.879975	-33.461968	0.000000	
-7.661760	-0.605390	921.304770	-32.793852	84.852012	4.365501	-92.420619	-36.370940	0.000000	
-8.056474	-0.476118	921.655458	-32.793336	84.699213	4.401912	-92.195935	-36.364720	0.000000	
-6.201343	-0.151294	924.934196	-35.934828	84.384218	4.658851	-91.643884	-39.654849	0.000000	
-8.773214	-0.709128	923.388860	-31.371203	85.126401	4.227904	-92.443420	-34.743699	0.000000	
-9.303397	-0.981094	924.083901	-30.725399	85.248396	4.193717	-92.474308	-34.002807	0.000000	
-10.589925	-0.954183	923.746583	-27.838804	85.742492	4.052072	-92.964527	-30.891684	0.000000	
-8.153272	-0.798054	927.194773	-32.488723	85.119194	4.451113	-92.096937	-35.804310	0.000000	
-9.799164	-0.994174	926.510313	-29.215437	85.645392	4.111470	-92.632654	-32.285364	0.000000	
-7.578767	-0.620788	930.482547	-33.691897	84.930535	4.637347	-91.606192	-36.984425	0.000000	
-7.134420	-0.614940	930.479838	-34.553693	84.897391	4.708431	-91.597631	-37.911067	0.000000	
-6.607387	-0.397466	934.460468	-35.238810	84.680179	4.878908	-91.009995	-38.499262	0.000000	
-8.245801	-0.809909	932.563828	-32.570654	85.083469	4.589073	-91.527365	-35.689996	0.000000	
-9.979535	-1.142684	932.053093	-28.521914	85.794086	4.286375	-92.235139	-31.345180	0.000000	
-10.469598	-1.279996	931.881555	-27.661223	86.160205	4.161263	-92.615347	-30.418928	0.000000	
-9.847318	-1.232879	933.090991	-28.435155	85.914782	4.342761	-92.270721	-31.212814	0.000000	
-9.669442	-1.191983	935.169108	-28.519582	86.033612	4.491248	-92.205168	-31.237994	0.000000	
-6.389722	-0.851936	940.172317	-34.933710	84.858327	5.071600	-90.664338	-37.918667	0.000000	
-6.443885	-0.632311	940.171312	-34.502021	84.860851	4.893176	-90.663885	-37.472654	0.000000	
-7.943180	-0.871394	940.355524	-32.004309	85.472668	4.877418	-91.207443	-34.795071	0.000000	
-10.033221	-1.735001	938.456701	-27.570201	85.974347	4.355556	-91.800014	-30.087302	0.000000	
-7.195043	-1.000540	942.080565	-32.821482	85.318291	4.934622	-90.922565	-35.592568	0.000000	
-7.686326	-1.272870	942.081321	-31.572757	85.534849	4.792026	-91.123105	-34.250825	0.000000	
-7.958496	-1.367080	943.639429	-31.313015	85.322799	4.670024	-90.733047	-33.914755	0.000000	
-8.263769	-1.237067	942.778018	-30.538241	85.749237	4.740842	-91.249383	-33.130939	0.000000	
-8.314057	-1.327212	943.468717	-30.537616	85.507106	4.616652	-90.923527	-33.101256	0.000000	
-7.654450	-1.062165	945.370593	-30.707121	85.506125	4.747270	-90.780303	-33.231329	0.000000	
-10.040675	-1.705062	943.652474	-26.833131	86.093970	4.476295	-91.425218	-29.146814	0.000000	
-8.189087	-1.024576	945.719962	-29.888045	85.568942	4.641172	-90.781761	-32.355496	0.000000	
-8.365948	-1.079463	948.319766	-29.023989	85.599925	4.773438	-90.557250	-31.354631	0.000000	
-8.804718	-0.991061	947.111538	-28.981939	85.539493	4.734534	-90.581969	-31.354432	0.000000	
-8.242690	-0.593797	949.185374	-28.978889	85.721112	4.686914	-90.610345	-31.307972	0.000000	
-7.574263	-0.498351	951.260389	-31.131461	85.287403	4.886915	-89.997907	-33.509946	0.000000	
-9.525832	-0.695737	948.674260	-26.997910	85.939096	4.543523	-90.812626	-29.230218	0.000000	
-10.546761	-0.754354	948.680795	-24.714471	86.249418	4.419929	-91.078734	-26.819593	0.000000	
-9.222684	-0.519547	950.923031	-27.512724	85.966081	4.548865	-90.645997	-29.714796	0.000000	
-8.605078	-0.164122	952.652812	-28.156271	85.872175	4.696523	-90.420637	-30.358782	0.000000	
-10.163765	-0.709313	951.098572	-25.444759	86.094902	4.228064	-90.709338	-27.523975	0.000000	
-9.103785	-0.349770	953.691021	-27.078364	85.724672	4.430555	-90.139056	-29.185447	0.000000	
-8.041519	-0.076397	955.763852	-28.842414	85.626446	4.649760	-89.904861	-30.985658	0.000000	
-9.377190	-0.399438	954.383458	-26.216370	86.000041	4.289771	-90.346685	-28.258748	0.000000	
-10.267012	-0.456664	954.734872	-24.277298	86.218253	4.148679	-90.489984	-26.214276	0.000000	
-5.886493	0.379928	960.770641	-32.197225	85.098597	4.821203	-89.016901	-34.346862	0.000000	
-8.283888	-0.132168	958.011586	-27.202860	85.753653	4.334156	-89.814357	-29.200186	0.000000	
-9.793202	-0.282602	956.808155	-23.929901	86.310513	4.082993	-90.419820	-25.806362	0.000000	
-10.109682	-0.418428	955.595358	-22.853637	86.255835	3.865720	-90.457776	-24.703832	0.000000	
-6.886952	0.273446	960.943583	-28.706485	85.416158	4.251296	-89.273074	-30.701992	0.000000	
-8.169106	0.125520	960.086547	-26.122541	85.788203	4.143553	-89.664644	-28.028663	0.000000	
-7.994148	0.213733	960.085592	-25.949416	85.638224	4.143818	-89.518743	-27.853523	0.000000	
-6.843553	0.841836	962.333070	-28.056857	85.356902	4.399378	-89.086267	-30.016921	0.000000	
-6.896723	0.794375	962.677270	-27.410016	85.329810	4.239472	-89.023455	-29.331794	0.000000	
-8.979928	0.459039	960.784846	-22.586801	86.043930	3.951868	-89.818861	-24.348305	0.000000	
-8.318506	0.728981	960.954816	-23.059314	85.922231	4.024204	-89.715089	-24.851616	0.000000	
-7.299166	1.181731	962.855732	-25.426455	85.700322	4.242562	-89.368454	-27.288999	0.000000	
-8.634234	0.943262	961.303532	-21.980917	85.956484	3.936666	-89.700034	-23.733596	0.000000	
-7.574129	1.709686	961.645894	-24.606472	85.342078	4.025681	-89.091322	-26.500426	0.000000	
-6.601460	1.974927	963.893466	-24.732299	85.371531	4.300792	-88.972594	-26.586509	0.000000	
-4.516470	2.350727	965.787398	-28.693419	84.872610	4.679066	-88.404196	-30.659240	0.000000	
-7.625270	2.140750	961.995330	-22.191197	85.745462	4.065786	-89.475584	-24.005544	0.000000	
-6.383025	2.370434	964.760237	-24.428397	85.342218	4.375528	-88.875685	-26.271352	0.000000	
-5.944965	2.770872	965.278168	-24.814206	85.189966	4.395037	-88.696155	-26.680655	0.000000	
-5.023889	3.349339	966.659309	-25.327629	85.007322	4.470793	-88.435073	-27.208404	0.000000	
-4.841759	3.394043	966.313845	-25.155266	85.099008	4.613754	-88.571865	-27.042064	0.000000	
-6.048513	3.603661	963.895621	-22.484837	85.171704	4.198107	-88.797272	-24.349615	0.000000	
-5.424484	3.517445	964.931774	-22.957765	85.109113	4.415376	-88.674187	-24.809443	0.000000	
-7.342042	3.275354	962.861692	-18.780612	85.640541	3.875967	-89.303321	-20.508659	0.000000	
-6.102119	3.640856	962.855726	-20.329855	85.243112	4.054557	-88.963363	-22.139088	0.000000	
-4.643060	4.183469	964.927081	-22.610073	85.022536	4.309684	-88.630328	-24.487958	0.000000	
-3.489099	4.723144	965.616467	-24.158083	84.472672	4.579536	-88.065224	-26.105546	0.000000	
-2.124614	4.996424	967.339148	-25.404368	84.136371	4.690896	-87.641283	-27.364719	0.000000	
-3.499355	4.720675	965.094466	-23.166957	84.508580	4.382250	-88.149040	-25.092110	0.000000	
-2.798817	5.209376	965.091373	-22.949119	84.390422	4.401477	-88.067617	-24.894883	0.000000	
-5.857327	4.473016	961.469841	-17.439659	85.228494	3.822654	-89.089543	-19.212372	0.000000	
-4.397747	4.885015	961.635368	-19.333290	84.799759	4.001502	-88.713667	-21.202422	0.000000	
-3.605370	5.241767	963.190130	-20.062699	84.494523	4.112728	-88.300995	-21.947575	0.000000	
-2.763842	5.560969	963.705758	-21.741723	84.216196	4.238518	-88.014357	-23.697110	0.000000	
-2.553675	5.779383	964.222720	-21.050428	84.159484	4.115393	-87.921004	-22.980605	0.000000	
-2.946432	5.688899	962.667803	-20.276495	84.314247	4.130133	-88.199617	-22.207190	0.000000	
-0.917629	6.370854	965.080359	-23.804813	83.454526	4.313097	-87.208224	-25.849340	0.000000	
-1.273713	6.232994	963.003865	-21.867460	83.706291	4.202357	-87.635260	-23.883511	0.000000	
-2.115940	6.004113	963.353949	-21.092608	83.798467	4.059801	-87.650327	-23.057469	0.000000	
-1.636873	6.229360	962.657343	-21.048969	83.800939	3.969298	-87.743675	-23.041363	0.000000	
-2.352579	6.393764	962.488851	-18.807620	83.960972	3.809806	-87.883444	-20.726137	0.000000	
-3.323428	5.811040	960.760737	-17.173413	84.058397	3.644635	-88.084810	-19.026973	0.000000	
-0.804608	6.629605	963.172102	-21.003001	83.500492	3.989349	-87.433750	-23.005074	0.000000	
-1.907008	6.267265	961.792862	-19.540568	83.656821	3.860965	-87.656231	-21.495232	0.000000	
-3.206241	6.116201	961.104541	-16.051101	84.003860	3.432077	-88.003680	-17.870542	0.000000	
-2.361284	6.213232	961.100519	-17.256859	83.788358	3.610527	-87.829148	-19.130837	0.000000	
-1.173309	6.664148	962.478987	-18.632685	83.602556	3.703328	-87.580696	-20.560349	0.000000	
-1.220311	6.708564	962.132349	-18.503553	83.603582	3.631009	-87.610291	-20.435840	0.000000	
-0.465195	6.496460	961.953169	-19.753448	83.327685	3.718834	-87.383699	-21.726454	0.000000	
0.013534	6.673958	962.988269	-19.837682	83.206977	3.685858	-87.193164	-21.801787	0.000000	
0.139948	6.541545	962.465461	-19.321143	83.301353	3.559722	-87.345525	-21.268786	0.000000	
0.669667	6.634578	962.288765	-19.966303	82.725224	3.576470	-86.793598	-21.948410	0.000000	
0.225449	6.671862	963.331041	-19.233368	83.059297	3.561862	-87.021460	-21.166880	0.000000	
0.226067	6.406102	962.810171	-18.846557	83.091792	3.542732	-87.101898	-20.760652	0.000000	
-1.022356	6.302341	960.391794	-15.229095	83.531291	3.199637	-87.703936	-17.038168	0.000000	
-0.491391	6.304398	962.639640	-16.347332	83.283474	3.329383	-87.274492	-18.162036	0.000000	
0.658964	6.319886	962.631032	-18.630876	83.034249	3.399322	-87.083416	-20.535285	0.000000	
2.376905	6.551862	965.389770	-20.781018	82.391357	3.547934	-86.270719	-22.719634	0.000000	
1.720257	6.590345	964.530859	-19.748103	82.787807	3.618595	-86.719672	-21.670482	0.000000	
2.641952	6.330743	964.867452	-20.178339	82.485902	3.565166	-86.430395	-22.094012	0.000000	
2.330162	6.592346	965.217069	-19.875770	82.455973	3.530606	-86.350242	-21.788038	0.000000	
0.418347	5.950462	963.492758	-15.484150	83.078508	3.099278	-87.038159	-17.230176	0.000000	
-0.118335	6.209368	962.630923	-14.019187	83.357045	2.955677	-87.373446	-15.738132	0.000000	
1.122963	6.043193	964.353704	-16.171995	82.864765	3.154794	-86.780508	-17.934184	0.000000	
2.669813	6.502630	965.383921	-19.013390	82.522074	3.317066	-86.423665	-20.885895	0.000000	
4.621087	6.831932	966.412526	-22.285432	81.815046	3.639837	-85.714205	-24.269410	0.000000	
0.233687	6.077163	962.627480	-13.889289	82.995660	2.955461	-87.018858	-15.595539	0.000000	
2.710036	6.628058	966.250413	-17.762044	82.587407	3.356487	-86.416821	-19.580125	0.000000	
2.493441	6.361622	965.731884	-17.633788	82.406244	3.372547	-86.262622	-19.441914	0.000000	
2.175689	6.843932	965.215530	-16.641820	82.592247	3.229688	-86.482583	-18.452200	0.000000	
1.022894	6.520672	964.528622	-14.230630	82.994416	3.050438	-86.893511	-15.946095	0.000000	
2.576579	7.156086	965.908251	-17.372478	82.316689	3.374379	-86.159129	-19.214129	0.000000	
3.146552	7.246985	966.769759	-17.629753	82.376870	3.394692	-86.178382	-19.469125	0.000000	
2.796605	7.331995	965.734977	-16.811595	82.440698	3.428822	-86.315639	-18.646867	0.000000	
3.453724	7.600424	967.635359	-17.842781	82.043104	3.450669	-85.774877	-19.693083	0.000000	
4.912212	7.964333	969.013187	-19.304942	81.947818	3.686858	-85.640152	-21.196227	0.000000	
2.567463	7.633833	966.429668	-15.646208	82.384555	3.342288	-86.182763	-17.445704	0.000000	
2.290217	7.543060	965.908096	-14.828313	82.570566	3.055098	-86.405346	-16.602649	0.000000	
4.331927	8.357951	968.152118	-18.485931	81.951182	3.524575	-85.685464	-20.391215	0.000000	
2.646450	8.295584	965.911453	-14.911691	82.358628	3.235319	-86.206323	-16.732628	0.000000	
4.067729	8.485345	967.463068	-17.236382	82.168135	3.560246	-85.954858	-19.120975	0.000000	
3.088270	8.475529	966.255903	-15.341513	82.296862	3.307886	-86.137606	-17.182235	0.000000	
4.191365	9.058109	968.329449	-17.061246	82.017588	3.491605	-85.730349	-18.956918	0.000000	
2.423062	9.042652	965.225068	-13.746674	82.635757	3.271934	-86.541194	-15.580386	0.000000	
2.726195	9.131337	966.607163	-14.175729	82.361581	3.221102	-86.152528	-16.008296	0.000000	
5.559381	9.777462	969.362576	-19.039431	81.466578	3.654780	-85.150578	-21.019925	0.000000	
2.191085	9.478127	965.053855	-12.322850	82.611999	3.112174	-86.518302	-14.132942	0.000000	
4.320770	10.072628	967.642035	-16.196343	81.931224	3.564007	-85.708945	-18.134809	0.000000	
0.999001	9.507994	963.851487	-9.738586	82.984426	3.057741	-86.942248	-11.470112	0.000000	
1.832387	10.179677	965.059822	-11.372828	82.706055	3.078201	-86.594379	-13.189230	0.000000	
4.583473	10.959149	967.818293	-16.538393	81.960160	3.637289	-85.738607	-18.536474	0.000000	
4.137342	10.995028	968.687031	-15.460445	82.144726	3.586618	-85.827113	-17.409864	0.000000	
5.153276	11.271278	968.854254	-16.967261	81.958842	3.676025	-85.679411	-18.978253	0.000000	
3.564782	10.944140	967.306462	-13.867398	82.393391	3.566790	-86.172342	-15.783711	0.000000	
3.651332	11.343809	967.480618	-14.468925	81.937135	3.548859	-85.690399	-16.425940	0.000000	
3.782344	11.655710	967.307889	-14.726892	82.027208	3.548850	-85.806277	-16.713505	0.000000	
1.656990	11.099320	965.761208	-10.162519	82.679222	3.279353	-86.494087	-11.980453	0.000000	
2.626775	11.818653	966.103818	-12.055877	82.400636	3.351409	-86.231654	-13.978057	0.000000	
3.117553	11.775964	966.794571	-12.356588	82.308617	3.532083	-86.103910	-14.277213	0.000000	
2.579058	11.860720	965.930574	-11.452488	82.494303	3.297984	-86.341179	-13.358191	0.000000	
5.191063	12.503624	969.726704	-16.229766	81.779635	3.752169	-85.420419	-18.272695	0.000000	
4.485822	12.453333	967.480924	-14.508114	81.968929	3.676512	-85.771631	-16.530787	0.000000	
4.041128	12.668403	967.831213	-13.860789	81.879748	3.624154	-85.622946	-15.868727	0.000000	
3.020658	12.480782	966.278045	-11.578906	82.221884	3.425035	-86.054130	-13.520514	0.000000	
1.820541	12.421671	964.380331	-8.348866	82.658907	3.190377	-86.605258	-10.192739	0.000000	
1.737933	12.508951	965.075905	-8.606948	82.747083	3.335256	-86.629970	-10.458475	0.000000	
1.994329	12.423159	964.897697	-8.693152	82.627352	3.155527	-86.536647	-10.544607	0.000000	
6.378880	13.525317	969.550951	-16.225053	81.298483	3.896928	-85.008237	-18.330126	0.000000	
5.455782	13.386701	969.211415	-15.666565	81.570959	3.878191	-85.265435	-17.752009	0.000000	
3.321487	12.963999	966.797062	-10.671653	82.377639	3.410362	-86.186918	-12.603325	0.000000	
4.378034	13.411584	968.176998	-11.659038	81.860396	3.521011	-85.592184	-13.632298	0.000000	
5.306129	13.819733	969.211624	-13.510011	81.732361	3.648164	-85.423282	-15.552013	0.000000	
6.455029	13.960318	970.763076	-14.972587	81.394403	3.812291	-85.006287	-17.043208	0.000000	
2.203666	13.477458	965.939956	-7.438730	82.602363	3.160953	-86.430412	-9.296693	0.000000	
2.771204	13.702137	967.493831	-8.384432	82.356649	3.128353	-86.071806	-10.273573	0.000000	
4.675465	13.847091	970.600050	-10.836660	82.044485	3.510737	-85.587333	-12.778182	0.000000	
3.618919	13.706174	968.702954	-9.201554	82.232128	3.435435	-85.885912	-11.105520	0.000000	
3.074103	13.831803	969.050020	-8.080702	82.357599	3.132765	-85.953367	-9.952457	0.000000	
4.891206	14.379374	970.946778	-11.050437	82.164883	3.494514	-85.693519	-13.024843	0.000000	
3.029566	14.006170	969.398020	-7.778157	82.358374	3.169952	-85.921016	-9.647173	0.000000	
4.393705	14.680464	970.776348	-9.498049	82.141190	3.280751	-85.655264	-11.445269	0.000000	
5.019592	14.819639	971.467309	-10.875743	81.893338	3.496383	-85.375918	-12.863903	0.000000	
6.786033	15.188312	974.054107	-13.801982	81.368024	3.715838	-84.713722	-15.857320	0.000000	
4.124753	14.539073	972.162629	-8.419907	82.265209	3.266935	-85.646292	-10.312933	0.000000	
1.554734	13.808859	968.018694	-3.514026	83.132422	2.758372	-86.756458	-5.243315	0.000000	
4.336495	14.670066	972.852480	-8.030704	82.237193	3.161792	-85.569532	-9.913687	0.000000	
5.445057	14.816892	973.192141	-10.356591	81.896318	3.304243	-85.253590	-12.308933	0.000000	
5.751754	15.036757	974.922830	-10.612897	81.864076	3.380273	-85.088225	-12.564077	0.000000	
3.662768	14.704998	972.162312	-6.049006	82.517991	2.911196	-85.879676	-7.883721	0.000000	
4.503227	14.849071	972.329842	-7.944067	82.118309	2.963836	-85.502457	-9.839806	0.000000	
7.422462	15.314991	976.988908	-12.720990	81.494500	3.438038	-84.627619	-14.712951	0.000000	
7.288049	15.226576	976.295885	-12.506140	81.435532	3.346741	-84.619009	-14.497670	0.000000	
5.996441	15.345277	974.744414	-9.706521	81.840141	3.040986	-85.093185	-11.654127	0.000000	
3.111775	14.563028	972.160119	-3.981127	82.920839	2.483131	-86.262452	-5.748446	0.000000	
4.083457	14.662536	972.672596	-5.832694	82.460858	2.536596	-85.800564	-7.655173	0.000000	
6.381724	15.126993	975.949357	-10.223158	81.808651	2.828277	-84.978982	-12.157561	0.000000	
3.635806	14.611388	973.193868	-4.755578	82.827422	2.431420	-86.105880	-6.541774	0.000000	
7.220996	15.088448	978.021256	-11.600336	81.742182	2.957702	-84.780811	-13.539444	0.000000	
7.304979	15.135406	978.711889	-12.375553	81.678289	2.869062	-84.661073	-14.325234	0.000000	
5.186329	14.762250	975.262483	-8.372918	82.389592	2.648570	-85.565181	-10.247396	0.000000	
4.206790	14.573815	975.959159	-6.994388	82.514347	2.435779	-85.576178	-8.817340	0.000000	
2.918983	14.339702	974.752653	-4.626483	82.825897	2.165619	-85.926616	-6.384535	0.000000	
6.550577	15.040619	979.581427	-12.031245	81.859029	2.745586	-84.727918	-13.956325	0.000000	
3.359767	14.209872	977.173361	-5.831916	82.970856	2.242107	-85.889360	-7.596870	0.000000	
4.913454	14.450362	978.549969	-9.578460	82.260528	2.493156	-85.132827	-11.429784	0.000000	
3.312942	14.518186	979.772175	-6.992650	82.691027	2.265172	-85.375341	-8.781229	0.000000	
2.831776	14.029784	979.773503	-7.080733	82.689393	2.246097	-85.346004	-8.843151	0.000000	
2.257502	13.892874	978.737877	-6.048403	83.086845	2.172819	-85.808643	-7.789042	0.000000	
2.733883	14.070986	981.330454	-7.036555	82.809666	2.106648	-85.328810	-8.787747	0.000000	
4.291581	14.132339	983.227200	-10.352837	82.614637	2.485052	-85.056256	-12.148718	0.000000	
1.768858	13.753459	981.337408	-6.262798	83.112834	2.142428	-85.581968	-7.981063	0.000000	
3.623628	13.815393	984.267591	-9.750104	82.706067	2.326044	-85.021997	-11.506301	0.000000	
3.761517	13.681728	985.826102	-10.266341	82.641725	2.490293	-84.831410	-12.005447	0.000000	
3.367656	13.326153	985.827565	-10.181890	82.883097	2.489828	-85.053710	-11.899528	0.000000	
2.300808	13.094214	985.485807	-8.502802	83.130853	2.256959	-85.273597	-10.186350	0.000000	
5.045209	13.164771	989.623233	-13.884577	82.202116	2.638702	-84.137501	-15.589367	0.000000	
2.434592	12.429670	988.425047	-9.407678	83.185156	2.315948	-85.084897	-11.036225	0.000000	
5.489682	12.991602	991.005049	-14.918260	82.197203	2.748497	-84.041488	-16.602024	0.000000	
0.919032	11.926369	988.083168	-6.609173	83.649168	1.904555	-85.497611	-8.178926	0.000000	
4.645016	12.184861	992.736670	-13.885864	82.592096	2.573113	-84.246311	-15.488937	0.000000	
3.622134	11.863475	991.874793	-11.603905	82.994426	2.339671	-84.666595	-13.182857	0.000000	
2.651790	11.768688	992.054405	-11.217437	83.296059	2.268317	-84.900576	-12.785694	0.000000	
4.203624	11.472714	993.774482	-13.715215	82.712139	2.502841	-84.255027	-15.261685	0.000000	
2.470132	11.273597	994.476601	-10.441327	83.508996	2.238377	-84.899577	-11.948178	0.000000	
2.469667	11.142541	995.167875	-11.173809	83.323849	2.203067	-84.655078	-12.669093	0.000000	
1.361082	10.466217	993.959010	-8.505510	83.848792	1.986638	-85.222633	-9.960817	0.000000	
2.733218	10.611643	996.374832	-11.217534	83.535211	2.205513	-84.780457	-12.668718	0.000000	
3.221082	10.573097	997.410242	-12.595697	83.257073	2.278251	-84.441848	-14.035983	0.000000	
2.505667	10.295245	999.143914	-11.001283	83.805876	2.140309	-84.805792	-12.401655	0.000000	
3.574821	10.397818	1000.350552	-14.016104	83.158259	2.373283	-84.117026	-15.407195	0.000000	
4.637034	10.407404	1002.248212	-16.039547	82.938279	2.537544	-83.799228	-17.399003	0.000000	
0.517022	9.612912	998.980770	-8.634428	84.084240	1.907251	-84.986468	-9.995955	0.000000	
2.158700	9.541128	1002.260082	-12.466791	83.583876	2.216301	-84.303644	-13.785611	0.000000	
0.914261	9.263987	1000.706990	-9.970393	84.198960	1.927824	-84.978136	-11.295571	0.000000	
3.215973	9.418226	1005.194256	-14.963999	83.240416	2.274734	-83.777190	-16.225187	0.000000	
1.621313	9.181394	1003.645065	-12.036627	83.916692	2.040315	-84.489960	-13.318996	0.000000	
2.546935	8.880439	1005.713641	-13.888786	83.788262	2.079289	-84.241739	-15.118120	0.000000	
2.723541	8.971607	1005.712626	-14.405397	83.574713	2.078804	-84.039340	-15.636897	0.000000	
1.661968	8.604662	1006.237777	-12.682990	83.912122	1.991252	-84.272014	-13.896969	0.000000	
1.440217	7.897599	1006.234282	-12.771804	84.123437	1.864766	-84.469945	-13.945852	0.000000	
2.100808	8.167665	1008.135376	-14.234075	83.693450	1.939900	-83.922389	-15.386588	0.000000	
2.941780	8.266984	1008.995568	-16.215365	83.564908	2.030155	-83.770884	-17.343312	0.000000	
1.128067	7.585341	1008.138275	-13.374881	83.997755	1.778295	-84.169860	-14.501878	0.000000	
1.161484	7.671390	1008.482326	-12.641884	84.304007	1.619095	-84.446949	-13.775164	0.000000	
-0.875309	6.903154	1005.719948	-9.501299	84.618801	1.201360	-84.876106	-10.645185	0.000000	
0.940782	7.362394	1009.693584	-13.547323	84.238132	1.566640	-84.269081	-14.639189	0.000000	
0.629375	7.138002	1009.174466	-12.729851	84.453457	1.476321	-84.508078	-13.823785	0.000000	
-1.852944	6.583963	1006.416123	-8.425331	84.984130	1.006246	-85.126434	-9.551480	0.000000	
0.137250	7.089290	1009.695345	-12.342049	84.544818	1.316391	-84.528025	-13.430289	0.000000	
3.292774	7.301129	1012.795416	-19.017032	83.460071	1.945520	-83.375476	-19.994056	0.000000	
0.320563	6.740597	1009.519965	-13.291461	84.419972	1.386161	-84.429092	-14.353559	0.000000	
-1.049734	6.683414	1009.009974	-11.439989	84.848785	1.260790	-84.820153	-12.522284	0.000000	
-3.485962	6.172703	1007.118073	-7.436284	85.225999	0.864066	-85.216832	-8.540420	0.000000	
-0.076382	6.780847	1010.735995	-13.377219	84.568649	1.406819	-84.453525	-14.424350	0.000000	
-0.383283	6.734807	1011.084761	-13.463740	84.657787	1.425285	-84.495793	-14.502672	0.000000	
-1.232874	6.856718	1011.435429	-11.997977	84.692882	1.194304	-84.454340	-13.055497	0.000000	
-0.382478	6.559602	1010.910475	-13.680102	84.747799	1.406576	-84.599311	-14.709334	0.000000	
1.343561	7.020779	1013.152052	-17.554403	83.976349	1.642026	-83.748032	-18.528136	0.000000	
0.588739	7.097163	1014.023589	-16.002421	84.192401	1.591708	-83.848026	-16.986617	0.000000	
0.995296	6.749333	1015.059631	-17.511072	84.124751	1.771511	-83.719075	-18.437151	0.000000	
-2.908863	6.358573	1009.885769	-10.149282	85.273163	1.012002	-85.064210	-11.216009	0.000000	
-1.313096	6.415324	1013.340082	-13.205291	84.806153	1.340351	-84.404419	-14.199466	0.000000	
-2.815270	5.785057	1011.441737	-11.227029	85.025128	1.085227	-84.694524	-12.233745	0.000000	
-2.599345	6.092144	1012.653707	-10.837511	85.389297	1.125330	-84.965684	-11.852440	0.000000	
-1.667695	5.748836	1013.857551	-12.948626	84.927392	1.233230	-84.461699	-13.902593	0.000000	
-1.098381	6.018582	1014.892758	-13.765608	84.894252	1.235652	-84.375171	-14.709148	0.000000	
-2.155786	5.874649	1014.034867	-11.957117	85.111925	1.198849	-84.602040	-12.929479	0.000000	
-0.210715	5.981674	1016.272629	-15.315357	84.585492	1.416778	-84.006869	-16.213175	0.000000	
-2.378718	5.697183	1014.727182	-12.216321	85.321641	1.128381	-84.739201	-13.166842	0.000000	
-1.629837	5.349554	1015.238385	-13.121033	84.895947	1.110335	-84.319012	-14.032542	0.000000	
-4.909948	4.563735	1010.926047	-6.190274	86.103269	0.531450	-85.687555	-7.189467	0.000000	
-1.234315	5.482471	1017.141188	-13.550257	85.135207	1.204742	-84.419793	-14.437133	0.000000	
-1.052031	4.822597	1016.098052	-13.681890	84.984715	1.219026	-84.367609	-14.544230	0.000000	
-0.309475	5.314361	1017.998214	-14.971400	84.798079	1.205409	-84.069191	-15.812416	0.000000	
-1.855164	4.942043	1016.449810	-11.440826	85.537154	1.096893	-84.837849	-12.341276	0.000000	
0.132462	5.181386	1019.899686	-15.400792	84.704691	1.317004	-83.846670	-16.198148	0.000000	
0.004869	4.914636	1020.593117	-15.530732	84.884320	1.407798	-83.959226	-16.300348	0.000000	
-0.169170	4.913040	1019.209960	-14.712982	84.979255	1.423214	-84.155663	-15.518941	0.000000	
-1.776354	5.069046	1019.565080	-11.523958	85.443979	1.050618	-84.493984	-12.394577	0.000000	
-3.181538	4.480986	1018.708378	-9.631204	85.812169	1.048980	-84.848413	-10.513933	0.000000	
-1.015510	4.991514	1018.176004	-12.731451	85.168863	1.225388	-84.379907	-13.592043	0.000000	
-0.619804	4.815180	1020.423042	-13.462692	85.164698	1.283759	-84.213507	-14.270812	0.000000	
-1.369123	4.541807	1020.254342	-12.300485	85.410064	1.248007	-84.426588	-13.118868	0.000000	
-2.216184	4.885624	1019.395035	-10.404388	85.659543	1.068886	-84.695202	-11.288144	0.000000	
0.264803	5.042278	1022.842879	-15.183412	84.914803	1.467644	-83.820349	-15.933722	0.000000	
-1.024057	4.543455	1021.115477	-12.515138	85.470346	1.142667	-84.434049	-13.318795	0.000000	
-3.589067	4.076221	1018.186957	-7.995129	86.001338	0.797874	-85.054793	-8.889745	0.000000	
-1.854415	4.225657	1020.083281	-11.224264	85.504558	1.212125	-84.506555	-12.048510	0.000000	
-0.222999	4.463173	1022.149611	-14.194854	85.161043	1.322715	-84.090793	-14.945053	0.000000	
-0.357611	4.505524	1022.323535	-13.936186	85.252571	1.287623	-84.158762	-14.691953	0.000000	
-4.527845	3.975044	1017.498080	-5.453823	86.435212	0.529640	-85.486490	-6.392031	0.000000	
-0.492311	4.189732	1022.496036	-12.600943	85.530346	1.271178	-84.408970	-13.366417	0.000000	
0.836315	4.381363	1023.699985	-15.442484	84.763547	1.432849	-83.634399	-16.137911	0.000000	
-1.604103	4.135922	1020.769894	-10.620439	85.689904	0.981714	-84.645574	-11.444481	0.000000	
-1.516040	3.871617	1021.113802	-10.836499	85.749508	0.964133	-84.680542	-11.637969	0.000000	
1.098846	4.250758	1023.350388	-15.270768	84.977237	1.396582	-83.885909	-15.968188	0.000000	
-0.585142	3.924019	1021.108369	-11.826682	85.505122	1.106928	-84.492806	-12.610620	0.000000	
-1.473448	3.784888	1020.419572	-10.837083	85.629508	0.890596	-84.622360	-11.641137	0.000000	
-1.873437	3.557676	1019.901448	-9.416382	86.028684	0.818925	-85.034332	-10.241160	0.000000	
0.395943	4.024816	1022.489094	-14.582954	84.979186	1.358553	-83.919242	-15.295869	0.000000	
-2.004522	3.513763	1018.690093	-9.158589	85.818860	0.780088	-84.921318	-9.996890	0.000000	
0.347283	4.112748	1020.930404	-13.592727	85.196908	1.248678	-84.256746	-14.352888	0.000000	
-0.316792	4.064619	1020.241453	-13.033691	85.259118	1.121718	-84.337566	-13.811440	0.000000	
-0.586700	3.838353	1020.933752	-12.258329	85.564142	1.034361	-84.564847	-13.030727	0.000000	
-3.853389	3.231576	1017.318475	-6.619344	86.340538	0.724433	-85.445579	-7.497691	0.000000	
0.130911	4.248947	1019.721032	-14.153835	85.073760	1.245162	-84.223068	-14.926697	0.000000	
-2.834561	3.822853	1016.448503	-9.031086	85.879198	0.810652	-85.120403	-9.908765	0.000000	
-2.386168	4.002977	1017.487388	-10.020616	85.692788	1.027498	-84.875817	-10.881934	0.000000	
-1.990728	4.362481	1017.485792	-10.881420	85.629538	1.027389	-84.835592	-11.747786	0.000000	
1.120088	4.880195	1021.107576	-17.038008	84.697464	1.730523	-83.795608	-17.766771	0.000000	
-3.803339	4.124531	1015.246052	-7.825075	85.973601	0.790942	-85.259732	-8.748311	0.000000	
0.852167	5.186433	1021.283918	-16.649327	84.758922	1.695834	-83.826733	-17.400088	0.000000	
-0.516361	4.600460	1019.039214	-14.326587	85.161343	1.494332	-84.329201	-15.125019	0.000000	
-0.031280	5.136227	1018.692354	-14.928141	84.948295	1.547570	-84.175225	-15.749917	0.000000	
-3.263105	4.616735	1015.767584	-9.072923	85.907294	1.096536	-85.180923	-9.999903	0.000000	
-0.200293	4.960620	1018.694153	-15.575269	84.793319	1.635952	-84.013637	-16.375471	0.000000	
-0.653151	5.438724	1018.524899	-13.850501	85.163497	1.476828	-84.365965	-14.710998	0.000000	
-1.172844	5.259856	1017.144778	-13.550566	85.012867	1.562617	-84.302611	-14.425109	0.000000	
-3.748559	5.233984	1014.389474	-8.555582	86.030351	1.076571	-85.390037	-9.536524	0.000000	
-0.642388	5.311555	1017.314124	-14.670852	85.069568	1.598251	-84.373701	-15.526914	0.000000	
-2.820885	4.936880	1014.899543	-10.624097	85.690631	1.075576	-85.064071	-11.553862	0.000000	
-0.832000	5.353542	1017.312069	-14.067549	85.193867	1.330192	-84.485596	-14.936223	0.000000	
-1.397730	5.214062	1017.317991	-13.421496	85.043382	1.455475	-84.305983	-14.293393	0.000000	
0.107834	5.453479	1018.174592	-16.479267	84.699786	1.634674	-83.981222	-17.298435	0.000000	
-3.527242	4.976193	1014.039023	-9.806489	85.874766	1.002440	-85.278091	-10.758863	0.000000	
-4.406499	4.305990	1011.964288	-8.215680	85.881568	0.889982	-85.409285	-9.170094	0.000000	
-1.754071	4.992941	1017.144623	-13.509158	85.224245	1.311271	-84.478376	-14.369678	0.000000	
-3.486631	4.448078	1014.553347	-10.454084	85.751248	0.858808	-85.115758	-11.362920	0.000000	
-3.001248	4.673485	1014.897397	-11.142284	85.597782	0.913202	-84.962792	-12.049903	0.000000	
-1.309326	5.000762	1016.102741	-14.328583	85.131783	1.344037	-84.497753	-15.190449	0.000000	
-0.203572	5.189374	1017.827525	-16.739511	84.819653	1.489787	-84.110191	-17.545183	0.000000	
-0.867774	5.185143	1017.485236	-16.223377	85.002303	1.381718	-84.281106	-17.043314	0.000000	
-2.770125	4.812373	1015.937769	-13.037744	85.436966	1.128962	-84.731064	-13.911791	0.000000	
-3.611490	4.581684	1015.595918	-11.444653	85.775181	1.021668	-85.045857	-12.334828	0.000000	
-4.182944	4.664156	1015.255352	-10.497249	86.110633	1.057708	-85.372952	-11.410083	0.000000	
-3.470208	4.762728	1015.944353	-12.650756	85.587646	1.200610	-84.840170	-13.528050	0.000000	
-0.643435	5.761005	1020.432066	-17.814267	84.932000	1.603060	-83.983431	-18.587143	0.000000	
-2.536481	5.169027	1018.193008	-14.802388	85.456618	1.491578	-84.577309	-15.635544	0.000000	
-1.697813	5.352992	1019.919524	-16.394601	85.268530	1.602255	-84.297193	-17.181689	0.000000	
-2.229338	5.301526	1020.269430	-15.403729	85.513311	1.568052	-84.479240	-16.202058	0.000000	
