NO_OF_FRAMES	7200
NO_OF_CAMERAS	12
NO_OF_MARKERS	8
FREQUENCY	240
NO_OF_ANALOG	0
ANALOG_FREQUENCY	0
DESCRIPTION	--
TIME_STAMP	2020-02-08, 11:55:03	228381.22308140
DATA_INCLUDED	3D
MARKER_NAMES	ASISL	medialKnee	lateralKnee	medialMalleolus	lateralMalleolus	heel	toe	sacral
ASISL X	ASISL Y	ASISL Z	medialKnee X	medialKnee Y	medialKnee Z	lateralKnee X	lateralKnee Y	lateralKnee Z	medialMalleolus X	medialMalleolus Y	medialMalleolus Z	lateralMalleolus X	lateralMalleolus Y	lateralMalleolus Z	heel X	heel Y	heel Z	toe X	toe Y	toe Z	sacral X	sacral Y	sacral Z	
0.000	0.000	0.000	547.891	272.523	498.108	426.911	180.794	515.883	338.903	294.801	129.369	266.272	239.979	134.044	205.619	328.155	28.971	466.073	120.022	61.815	100.204	598.824	683.195
0.000	0.000	0.000	547.937	272.448	498.056	426.951	180.765	515.848	338.897	294.782	129.376	265.587	240.995	133.963	205.666	328.223	28.949	466.083	120.028	61.854	100.341	598.859	682.848
0.000	0.000	0.000	547.981	272.361	497.993	426.974	180.718	515.840	338.940	294.763	129.410	266.266	239.954	134.030	205.676	328.237	28.960	466.066	120.040	61.848	100.510	598.966	682.673
0.000	0.000	0.000	548.068	272.265	497.950	426.933	180.698	515.820	339.179	295.100	129.293	266.256	239.967	134.005	205.644	328.224	28.947	466.059	120.045	61.839	100.692	599.079	682.395
0.000	0.000	0.000	548.066	272.167	497.897	426.926	180.675	515.820	339.154	295.053	129.294	266.175	240.028	133.984	205.687	328.271	28.930	466.056	120.046	61.818	100.863	599.192	682.156
0.000	0.000	0.000	548.107	272.093	497.816	426.931	180.633	515.818	339.137	295.056	129.289	266.177	240.035	134.032	205.635	328.234	28.933	466.020	120.057	61.815	101.029	599.286	681.957
0.000	0.000	0.000	548.139	271.993	497.685	426.939	180.592	515.789	339.115	294.995	129.304	266.197	239.971	133.893	205.653	328.261	28.934	466.025	120.041	61.799	101.156	599.384	681.806
0.000	0.000	0.000	548.186	271.903	497.724	427.008	180.674	515.918	339.245	295.154	129.221	266.110	240.304	134.050	205.964	328.603	29.001	466.018	120.166	61.920	101.398	599.496	681.683
0.000	0.000	0.000	548.326	271.697	497.733	426.958	180.368	515.916	339.033	294.816	129.322	266.128	240.240	134.074	205.617	327.997	28.992	465.966	119.915	61.997	101.582	599.565	681.584
0.000	0.000	0.000	548.362	271.606	497.693	426.967	180.322	515.893	339.033	294.722	129.343	266.144	240.221	134.047	205.591	327.947	28.990	465.962	119.868	62.002	101.704	599.647	681.496
0.000	0.000	0.000	548.401	271.509	497.573	427.084	180.245	515.710	339.016	294.741	129.324	266.197	240.244	134.063	205.614	327.987	28.992	466.042	119.806	61.762	101.894	599.714	681.414
0.000	0.000	0.000	548.450	271.400	497.547	427.126	180.215	515.712	339.037	294.744	129.348	266.145	240.292	134.094	205.620	327.996	29.015	466.047	119.812	61.755	102.014	599.822	681.379
0.000	0.000	0.000	548.461	271.327	497.516	427.176	180.189	515.717	339.021	294.729	129.373	266.151	240.347	134.054	205.621	328.010	29.039	466.054	119.824	61.758	102.133	599.877	681.349
0.000	0.000	0.000	548.535	271.234	497.468	427.116	180.199	515.739	339.048	294.710	129.397	266.124	240.335	134.123	205.646	328.026	29.082	466.034	119.815	61.730	102.276	599.981	681.357
0.000	0.000	0.000	548.623	271.159	497.501	427.148	180.182	515.752	339.048	294.685	129.439	266.114	240.444	134.097	205.615	328.021	29.067	466.040	119.798	61.709	102.388	600.027	681.362
0.000	0.000	0.000	548.671	271.057	497.470	427.238	180.079	515.752	339.062	294.680	129.421	266.122	240.399	134.121	205.650	328.009	29.098	466.046	119.756	61.712	102.570	600.082	681.389
0.000	0.000	0.000	548.746	270.977	497.460	427.227	180.078	515.805	339.079	294.635	129.462	266.095	240.383	134.060	205.649	327.979	29.119	466.079	119.748	61.709	102.659	600.096	681.462
0.000	0.000	0.000	548.796	270.954	497.454	427.281	180.010	515.837	339.060	294.629	129.453	266.157	240.314	134.139	205.658	327.988	29.122	466.089	119.705	61.696	102.785	600.116	681.532
0.000	0.000	0.000	548.833	270.867	497.475	427.280	180.000	515.872	339.079	294.612	129.478	266.154	240.333	134.151	205.639	327.954	29.133	466.084	119.696	61.714	102.927	600.166	681.603
0.000	0.000	0.000	548.866	270.812	497.457	427.327	179.998	515.896	339.084	294.595	129.497	266.206	240.326	134.161	205.642	327.968	29.163	466.076	119.702	61.717	103.019	600.172	681.767
0.000	0.000	0.000	548.928	270.772	497.501	427.336	180.017	515.900	339.086	294.576	129.537	266.144	240.421	134.193	205.665	328.017	29.176	466.062	119.708	61.698	103.137	600.242	681.874
0.000	0.000	0.000	548.979	270.749	497.490	427.336	180.018	515.941	339.097	294.541	129.518	266.182	240.384	134.137	205.674	328.031	29.200	466.058	119.717	61.708	103.295	600.297	682.012
0.000	0.000	0.000	549.046	270.680	497.490	427.345	180.028	515.963	339.109	294.562	129.531	266.198	240.389	134.171	205.649	328.020	29.211	466.064	119.714	61.682	103.391	600.308	682.164
0.000	0.000	0.000	549.087	270.656	497.503	427.425	180.021	515.972	339.126	294.509	129.579	266.181	240.413	134.177	205.663	328.014	29.195	466.072	119.717	61.685	103.583	600.388	682.396
0.000	0.000	0.000	549.153	270.623	497.513	427.434	180.018	516.006	339.118	294.516	129.570	266.224	240.309	134.240	205.649	327.977	29.203	466.057	119.688	61.696	103.704	600.363	682.609
0.000	0.000	0.000	549.153	270.623	497.509	427.478	180.027	516.054	339.138	294.488	129.588	266.187	240.349	134.208	205.633	327.929	29.219	466.076	119.713	61.687	103.849	600.422	682.804
0.000	0.000	0.000	549.196	270.596	497.528	427.491	180.016	516.090	339.097	294.500	129.597	265.682	241.004	134.313	205.656	327.959	29.227	466.065	119.701	61.695	103.997	600.465	683.072
0.000	0.000	0.000	549.206	270.554	497.508	427.579	179.983	516.122	339.078	294.387	129.801	266.172	240.404	134.274	205.669	327.966	29.244	466.088	119.686	61.670	104.097	600.518	683.338
0.000	0.000	0.000	549.230	270.509	497.500	427.589	180.022	516.158	339.098	294.473	129.610	266.246	240.256	134.277	205.651	327.975	29.250	466.075	119.704	61.690	104.242	600.555	683.618
0.000	0.000	0.000	549.236	270.470	497.507	427.614	180.017	516.178	339.079	294.401	129.668	266.210	240.315	134.296	205.656	328.001	29.257	466.087	119.691	61.682	104.389	600.607	683.904
0.000	0.000	0.000	549.260	270.455	497.523	427.653	180.014	516.208	339.088	294.424	129.671	266.197	240.332	134.277	205.671	328.015	29.274	466.060	119.682	61.675	104.424	600.612	684.283
0.000	0.000	0.000	549.241	270.427	497.524	427.671	180.000	516.256	339.072	294.394	129.724	266.174	240.331	134.281	205.686	328.011	29.273	466.076	119.685	61.652	104.529	600.584	684.676
0.000	0.000	0.000	549.241	270.386	497.503	427.691	179.987	516.317	339.060	294.383	129.735	266.185	240.313	134.340	205.676	327.996	29.311	466.108	119.680	61.663	104.593	600.557	685.058
0.000	0.000	0.000	549.248	270.381	497.539	427.730	179.963	516.401	339.062	294.310	129.771	266.220	240.294	134.348	205.663	327.960	29.317	466.096	119.684	61.652	104.818	600.562	685.522
0.000	0.000	0.000	549.232	270.341	497.550	427.748	179.975	516.451	339.090	294.327	129.839	266.244	240.217	134.351	205.703	327.950	29.321	466.100	119.674	61.645	104.988	600.600	685.883
0.000	0.000	0.000	549.257	270.322	497.565	427.725	179.954	516.522	339.104	294.283	129.830	266.289	240.193	134.341	205.700	327.951	29.329	466.117	119.674	61.654	105.178	600.719	686.233
0.000	0.000	0.000	549.212	270.272	497.580	427.748	179.942	516.584	339.086	294.290	129.891	265.657	240.950	134.410	205.716	328.004	29.350	466.117	119.680	61.642	105.359	600.800	686.666
0.000	0.000	0.000	549.194	270.230	497.632	427.676	179.973	516.667	339.069	294.190	130.074	266.222	240.249	134.359	205.741	327.996	29.379	466.156	119.686	61.673	105.491	600.872	687.121
0.000	0.000	0.000	549.179	270.201	497.668	427.705	179.930	516.736	339.082	294.244	129.944	266.224	240.255	134.363	205.721	327.981	29.392	466.127	119.692	61.674	105.574	600.848	687.581
0.000	0.000	0.000	549.138	270.166	497.703	427.587	179.955	516.820	339.072	294.202	129.974	266.179	240.268	134.335	205.753	328.013	29.356	466.114	119.672	61.680	105.693	600.883	688.055
0.000	0.000	0.000	549.126	270.085	497.765	427.572	179.932	516.896	339.063	294.113	130.215	266.261	240.216	134.419	205.737	327.985	29.393	466.129	119.669	61.659	105.906	600.906	688.601
0.000	0.000	0.000	549.089	270.028	497.795	427.537	179.911	516.957	339.077	294.167	130.071	266.287	240.163	134.398	205.767	327.989	29.343	466.118	119.654	61.678	106.056	600.919	689.012
0.000	0.000	0.000	548.992	269.952	497.830	427.481	179.858	517.091	339.074	294.147	130.086	266.277	240.178	134.401	205.764	327.981	29.357	466.124	119.664	61.681	106.182	600.938	689.449
0.000	0.000	0.000	548.942	269.883	497.903	427.438	179.841	517.192	339.055	294.136	130.101	266.223	240.217	134.399	205.797	327.986	29.368	466.106	119.638	61.702	106.315	600.960	689.899
0.000	0.000	0.000	548.887	269.810	497.971	427.337	179.856	517.226	339.024	294.038	130.299	266.265	240.126	134.425	205.797	328.018	29.363	466.110	119.642	61.699	106.427	601.027	690.477
0.000	0.000	0.000	548.807	269.737	497.967	427.299	179.824	517.320	338.992	294.039	130.139	266.245	240.109	134.437	205.776	328.022	29.343	466.112	119.661	61.730	106.509	601.020	691.003
0.000	0.000	0.000	548.730	269.636	498.055	427.212	179.796	517.374	338.973	293.970	130.355	266.088	240.238	134.347	205.818	328.047	29.331	466.069	119.655	61.709	106.779	601.171	691.511
0.000	0.000	0.000	548.665	269.579	498.059	427.136	179.786	517.437	338.939	293.952	130.341	266.092	240.191	134.362	205.809	328.070	29.352	466.097	119.678	61.712	106.924	601.196	691.968
0.000	0.000	0.000	548.598	269.496	498.074	427.114	179.752	517.531	338.936	293.935	130.364	266.098	240.192	134.464	205.812	328.012	29.330	466.104	119.635	61.697	107.040	601.199	692.480
0.000	0.000	0.000	548.495	269.448	498.085	427.048	179.728	517.596	338.920	293.883	130.411	266.072	240.077	134.387	205.846	328.024	29.294	466.114	119.627	61.697	107.123	601.205	692.964
0.000	0.000	0.000	548.423	269.355	498.128	427.030	179.677	517.738	338.879	293.875	130.420	266.152	240.012	134.468	205.851	328.013	29.290	466.136	119.627	61.683	107.206	601.232	693.494
0.000	0.000	0.000	548.323	269.281	498.137	426.964	179.644	517.842	338.875	293.871	130.433	266.136	239.961	134.399	205.863	328.018	29.250	466.128	119.620	61.689	107.326	601.322	694.020
0.000	0.000	0.000	548.225	269.199	498.146	426.890	179.633	517.940	338.860	293.846	130.444	266.046	240.005	134.370	205.879	328.041	29.295	466.149	119.638	61.717	107.489	601.428	694.526
0.000	0.000	0.000	548.096	269.149	498.176	426.687	179.681	518.034	338.822	293.799	130.460	266.057	239.992	134.412	205.870	328.070	29.298	466.119	119.649	61.730	107.581	601.540	695.000
0.000	0.000	0.000	548.020	269.081	498.201	426.598	179.675	518.152	338.810	293.802	130.465	266.016	240.000	134.403	205.886	328.077	29.305	466.100	119.649	61.701	107.655	601.593	695.456
0.000	0.000	0.000	547.864	269.043	498.212	426.514	179.710	518.230	338.810	293.800	130.487	266.045	239.933	134.436	205.873	328.073	29.272	466.112	119.636	61.734	107.655	601.573	696.022
0.000	0.000	0.000	547.789	269.018	498.281	426.423	179.731	518.310	338.770	293.782	130.504	265.962	240.028	134.424	205.892	328.084	29.272	466.098	119.643	61.725	107.705	601.560	696.591
0.000	0.000	0.000	547.694	269.007	498.292	426.345	179.713	518.390	338.790	293.756	130.525	266.018	239.863	134.387	205.870	328.038	29.234	466.095	119.632	61.751	107.746	601.600	697.018
0.000	0.000	0.000	547.567	268.977	498.292	426.268	179.736	518.462	338.723	293.737	130.531	266.010	239.860	134.348	205.884	328.024	29.220	466.113	119.635	61.783	107.906	601.745	697.548
0.000	0.000	0.000	547.475	268.978	498.333	426.179	179.764	518.563	338.733	293.736	130.551	265.984	239.839	134.389	205.867	328.005	29.182	466.100	119.640	61.839	108.051	601.887	698.071
0.000	0.000	0.000	547.416	269.003	498.371	426.093	179.832	518.634	338.692	293.671	130.546	265.964	239.852	134.351	205.881	328.023	29.216	466.072	119.650	61.833	108.058	601.962	698.568
0.000	0.000	0.000	547.273	269.027	498.354	425.962	179.913	518.712	338.680	293.667	130.557	265.908	239.839	134.316	205.871	328.050	29.205	466.041	119.647	61.850	107.970	601.973	699.107
0.000	0.000	0.000	547.154	269.086	498.438	425.886	179.995	518.745	338.640	293.678	130.534	265.845	239.941	134.320	205.870	328.073	29.178	466.037	119.670	61.856	108.031	602.050	699.655
0.000	0.000	0.000	547.073	269.163	498.435	425.833	180.098	518.794	338.618	293.656	130.544	265.781	239.891	134.262	205.835	328.058	29.150	466.041	119.696	61.890	108.086	602.099	700.143
0.000	0.000	0.000	546.981	269.244	498.450	425.799	180.159	518.848	338.610	293.623	130.565	265.790	239.882	134.326	205.842	328.033	29.118	466.033	119.700	61.909	108.177	602.205	700.621
0.000	0.000	0.000	546.883	269.337	498.452	425.784	180.273	518.875	338.591	293.641	130.518	265.838	239.802	134.235	205.847	328.014	29.118	466.021	119.672	61.923	108.222	602.270	701.181
0.000	0.000	0.000	546.802	269.447	498.471	425.749	180.360	518.959	338.573	293.655	130.561	265.773	239.774	134.208	205.843	327.994	29.074	466.045	119.684	61.940	108.219	602.296	701.684
0.000	0.000	0.000	546.729	269.567	498.487	425.695	180.514	519.019	338.564	293.654	130.543	265.802	239.773	134.265	205.824	327.993	29.057	466.050	119.712	61.926	108.194	602.332	702.137
0.000	0.000	0.000	546.657	269.719	498.477	425.678	180.632	519.072	338.576	293.635	130.540	265.766	239.764	134.197	205.796	327.998	29.031	466.008	119.708	61.961	108.207	602.401	702.610
0.000	0.000	0.000	546.561	269.893	498.475	425.665	180.844	519.087	338.557	293.704	130.531	265.803	239.760	134.246	205.787	328.008	29.028	466.012	119.737	61.957	108.228	602.520	703.034
0.000	0.000	0.000	546.461	270.092	498.468	425.646	180.987	519.105	338.509	293.674	130.496	265.754	239.885	134.273	205.825	328.045	28.987	466.018	119.756	61.955	108.294	602.578	703.556
0.000	0.000	0.000	546.409	270.222	498.435	425.626	181.121	519.159	338.495	293.663	130.490	265.711	239.875	134.210	205.806	328.044	28.982	466.015	119.747	61.971	108.241	602.602	704.161
0.000	0.000	0.000	546.351	270.447	498.452	425.651	181.268	519.200	338.496	293.673	130.501	265.672	239.838	134.226	205.796	328.034	28.948	466.012	119.752	61.971	108.239	602.643	704.732
0.000	0.000	0.000	546.294	270.647	498.428	425.685	181.455	519.233	338.488	293.710	130.479	265.672	239.855	134.212	205.774	327.988	28.944	466.025	119.748	61.983	108.213	602.713	705.131
0.000	0.000	0.000	546.224	270.947	498.434	425.725	181.617	519.315	338.490	293.708	130.486	265.662	239.838	134.202	205.747	327.943	28.882	466.004	119.759	61.999	108.202	602.754	705.518
0.000	0.000	0.000	546.176	271.213	498.404	425.746	181.829	519.331	338.476	293.742	130.471	265.637	239.816	134.079	205.747	327.917	28.854	465.987	119.771	62.003	108.156	602.815	705.940
0.000	0.000	0.000	546.125	271.490	498.422	425.781	182.073	519.393	338.439	293.750	130.473	265.639	239.805	134.228	205.734	327.917	28.838	466.038	119.781	62.013	108.108	602.852	706.404
0.000	0.000	0.000	546.099	271.779	498.411	425.793	182.293	519.443	338.411	293.775	130.453	265.551	239.896	134.091	205.730	327.961	28.795	465.991	119.796	62.048	108.004	602.827	706.940
0.000	0.000	0.000	546.031	272.064	498.443	425.821	182.539	519.473	338.367	293.754	130.439	265.549	239.878	134.105	205.714	327.980	28.814	466.011	119.837	62.051	107.905	602.829	707.437
0.000	0.000	0.000	545.986	272.374	498.441	425.844	182.773	519.520	338.352	293.788	130.443	265.554	239.926	134.187	205.686	327.944	28.765	465.991	119.845	62.081	107.826	602.825	707.846
0.000	0.000	0.000	545.988	272.696	498.442	425.910	183.040	519.546	338.334	293.819	130.409	265.566	239.932	134.171	205.648	327.921	28.746	465.982	119.882	62.112	107.838	602.870	708.344
0.000	0.000	0.000	545.929	273.059	498.391	425.955	183.323	519.619	338.339	293.833	130.379	265.512	239.954	134.137	205.666	327.939	28.654	465.981	119.917	62.113	107.736	602.835	708.770
0.000	0.000	0.000	545.847	273.406	498.388	426.060	183.589	519.637	338.318	293.867	130.402	265.442	239.989	134.092	205.614	327.860	28.640	465.980	119.912	62.148	107.571	602.757	709.246
0.000	0.000	0.000	545.820	273.782	498.398	426.074	183.901	519.700	338.309	293.889	130.350	265.536	239.934	134.135	205.595	327.824	28.618	465.965	119.918	62.167	107.457	602.725	709.665
0.000	0.000	0.000	545.795	274.165	498.417	426.121	184.177	519.712	338.305	293.946	130.341	265.440	240.044	134.056	205.579	327.860	28.586	465.936	119.948	62.208	107.394	602.750	710.064
0.000	0.000	0.000	545.742	274.492	498.421	426.158	184.459	519.718	338.288	293.969	130.314	265.456	240.058	134.141	205.546	327.881	28.554	465.940	119.978	62.239	107.297	602.746	710.521
0.000	0.000	0.000	545.685	274.846	498.378	426.190	184.701	519.734	338.272	294.016	130.277	265.439	240.164	134.081	205.567	327.902	28.533	465.939	119.985	62.251	107.130	602.732	710.971
0.000	0.000	0.000	545.616	275.172	498.316	426.197	184.999	519.693	338.268	294.078	130.187	265.406	240.211	134.084	205.540	327.892	28.512	465.931	120.026	62.255	106.934	602.614	711.426
0.000	0.000	0.000	545.553	275.497	498.326	426.223	185.241	519.730	338.255	294.109	130.195	265.388	240.223	134.079	205.556	327.902	28.446	465.898	120.008	62.252	106.859	602.618	711.867
0.000	0.000	0.000	545.508	275.807	498.263	426.300	185.495	519.721	338.237	294.077	130.133	265.405	240.187	134.041	205.540	327.853	28.378	465.885	120.035	62.328	106.723	602.581	712.228
0.000	0.000	0.000	545.460	276.191	498.210	426.333	185.769	519.682	338.216	294.171	130.106	265.334	240.225	133.939	205.515	327.842	28.334	465.920	120.037	62.254	106.652	602.610	712.632
0.000	0.000	0.000	545.377	276.554	498.211	426.396	186.024	519.673	338.180	294.171	130.090	265.298	240.234	133.917	205.507	327.842	28.288	465.933	120.054	62.290	106.560	602.594	712.995
0.000	0.000	0.000	545.325	276.905	498.156	426.488	186.237	519.710	338.182	294.226	130.062	265.294	240.255	133.899	205.481	327.804	28.265	465.924	120.096	62.318	106.394	602.530	713.421
0.000	0.000	0.000	545.310	277.229	498.107	426.523	186.561	519.684	338.162	294.254	130.034	265.237	240.268	133.936	205.484	327.836	28.242	465.940	120.103	62.338	106.272	602.506	713.841
0.000	0.000	0.000	545.273	277.512	498.086	426.507	186.831	519.706	338.115	294.234	129.995	265.173	240.384	133.914	205.482	327.842	28.201	465.923	120.103	62.335	106.166	602.505	714.250
0.000	0.000	0.000	545.159	277.821	498.008	426.540	187.032	519.701	338.047	294.267	129.959	265.145	240.354	133.816	205.442	327.850	28.184	465.872	120.166	62.364	106.131	602.491	714.625
0.000	0.000	0.000	545.070	278.124	497.940	426.557	187.284	519.701	338.038	294.269	129.922	265.102	240.366	133.799	205.450	327.837	28.150	465.866	120.150	62.403	106.057	602.458	714.984
0.000	0.000	0.000	545.044	278.382	497.891	426.585	187.495	519.722	337.991	294.310	129.875	265.045	240.312	133.737	205.421	327.817	28.104	465.875	120.168	62.376	105.910	602.391	715.393
0.000	0.000	0.000	544.980	278.667	497.854	426.638	187.687	519.752	337.982	294.295	129.867	265.054	240.295	133.729	205.403	327.778	28.078	465.872	120.174	62.412	105.850	602.378	715.862
0.000	0.000	0.000	544.921	278.973	497.810	426.632	187.930	519.772	337.919	294.317	129.875	264.954	240.256	133.767	205.391	327.739	28.056	465.860	120.180	62.437	105.807	602.323	716.307
0.000	0.000	0.000	544.889	279.279	497.775	426.678	188.118	519.802	337.875	294.325	129.852	264.998	240.207	133.640	205.367	327.716	28.013	465.836	120.188	62.429	105.785	602.371	716.648
0.000	0.000	0.000	544.833	279.554	497.764	426.661	188.374	519.854	337.880	294.381	129.676	264.902	240.262	133.647	205.349	327.709	27.989	465.834	120.191	62.440	105.787	602.359	717.005
0.000	0.000	0.000	544.792	279.816	497.710	426.715	188.606	519.849	337.806	294.307	129.811	264.781	240.273	133.633	205.311	327.719	27.965	465.851	120.216	62.476	105.628	602.284	717.425
0.000	0.000	0.000	544.796	280.094	497.697	426.741	188.833	519.894	337.771	294.335	129.769	264.863	240.263	133.692	205.300	327.711	27.962	465.811	120.263	62.489	105.509	602.186	717.878
0.000	0.000	0.000	544.737	280.368	497.656	426.823	188.981	519.883	337.762	294.408	129.639	264.850	240.249	133.658	205.289	327.740	27.887	465.842	120.261	62.512	105.423	602.012	718.369
0.000	0.000	0.000	544.685	280.606	497.627	426.854	189.161	519.903	337.763	294.441	129.636	264.682	240.326	133.591	205.266	327.722	27.872	465.842	120.260	62.532	105.382	601.939	718.679
0.000	0.000	0.000	544.572	280.872	497.574	426.931	189.295	519.914	337.686	294.342	129.763	264.691	240.213	133.551	205.258	327.714	27.853	465.821	120.297	62.530	105.384	601.877	719.103
0.000	0.000	0.000	544.507	281.070	497.528	427.023	189.448	519.927	337.701	294.432	129.585	264.707	240.223	133.555	205.235	327.664	27.832	465.826	120.292	62.512	105.359	601.752	719.539
0.000	0.000	0.000	544.468	281.299	497.531	426.973	189.625	520.013	337.627	294.341	129.758	264.639	240.188	133.435	205.243	327.649	27.823	465.832	120.285	62.547	105.342	601.649	720.042
0.000	0.000	0.000	544.400	281.503	497.468	427.026	189.761	520.015	337.626	294.366	129.748	264.587	240.197	133.442	205.210	327.639	27.810	465.816	120.306	62.543	105.318	601.567	720.411
0.000	0.000	0.000	544.365	281.721	497.453	427.114	189.870	519.985	337.634	294.453	129.595	264.591	240.200	133.479	205.237	327.659	27.771	465.869	120.319	62.588	105.308	601.515	720.771
0.000	0.000	0.000	544.357	281.926	497.415	427.176	189.979	520.033	337.559	294.425	129.568	264.504	240.271	133.456	205.230	327.659	27.817	465.833	120.341	62.587	105.284	601.336	721.203
0.000	0.000	0.000	544.341	282.139	497.364	427.186	190.137	520.023	337.537	294.334	129.709	264.538	240.205	133.495	205.156	327.639	27.766	465.844	120.347	62.581	105.236	601.154	721.648
0.000	0.000	0.000	544.287	282.334	497.342	427.206	190.256	520.016	337.525	294.422	129.538	264.467	240.218	133.455	205.162	327.641	27.739	465.831	120.350	62.597	105.188	600.995	722.143
0.000	0.000	0.000	544.238	282.516	497.283	427.256	190.387	520.053	337.486	294.339	129.674	264.491	240.181	133.465	205.137	327.630	27.714	465.837	120.378	62.600	105.165	600.877	722.482
0.000	0.000	0.000	544.212	282.654	497.210	427.365	190.445	520.101	337.472	294.333	129.639	264.319	240.248	133.328	205.173	327.602	27.687	465.846	120.350	62.612	105.179	600.757	722.843
0.000	0.000	0.000	544.199	282.786	497.148	427.400	190.530	520.140	337.476	294.339	129.631	264.395	240.087	133.340	205.121	327.532	27.617	465.861	120.333	62.603	105.171	600.683	723.185
0.000	0.000	0.000	544.183	282.922	497.112	427.428	190.594	520.176	337.489	294.451	129.450	264.395	240.096	133.376	205.128	327.581	27.607	465.854	120.367	62.625	105.124	600.541	723.601
0.000	0.000	0.000	544.145	283.025	497.071	427.433	190.750	520.195	337.426	294.420	129.422	264.338	240.175	133.340	205.158	327.587	27.587	465.839	120.380	62.649	105.103	600.416	724.067
0.000	0.000	0.000	544.132	283.148	497.009	427.436	190.843	520.189	337.395	294.376	129.571	264.222	240.247	133.251	205.118	327.631	27.575	465.799	120.397	62.643	105.079	600.305	724.502
0.000	0.000	0.000	544.105	283.242	496.946	427.476	190.913	520.239	337.357	294.372	129.556	264.204	240.271	133.243	205.119	327.628	27.558	465.814	120.400	62.662	105.056	600.221	724.875
0.000	0.000	0.000	544.058	283.316	496.892	427.479	190.957	520.276	337.348	294.323	129.563	264.208	240.286	133.273	205.090	327.618	27.572	465.783	120.378	62.680	105.011	600.131	725.200
0.000	0.000	0.000	544.067	283.398	496.873	427.472	191.033	520.334	337.352	294.361	129.540	264.170	240.282	133.215	205.121	327.621	27.557	465.781	120.372	62.691	104.981	600.041	725.506
0.000	0.000	0.000	544.022	283.468	496.834	427.525	191.044	520.391	337.348	294.331	129.511	264.168	240.270	133.179	205.147	327.640	27.544	465.773	120.343	62.698	104.878	599.884	725.882
0.000	0.000	0.000	544.012	283.512	496.816	427.585	191.064	520.473	337.357	294.361	129.524	264.170	240.279	133.146	205.152	327.592	27.527	465.773	120.366	62.733	104.823	599.774	726.289
0.000	0.000	0.000	543.972	283.572	496.783	427.625	191.084	520.541	337.338	294.323	129.545	264.200	240.265	133.261	205.159	327.594	27.549	465.758	120.335	62.733	104.816	599.716	726.662
0.000	0.000	0.000	544.032	283.581	496.730	427.682	191.097	520.607	337.346	294.346	129.548	264.080	240.364	133.180	205.161	327.634	27.542	465.765	120.333	62.744	104.826	599.709	727.011
0.000	0.000	0.000	544.018	283.621	496.750	427.693	191.103	520.671	337.320	294.286	129.584	264.109	240.343	133.213	205.144	327.668	27.570	465.749	120.341	62.744	104.807	599.644	727.378
0.000	0.000	0.000	543.989	283.674	496.786	427.712	191.132	520.721	337.317	294.328	129.591	264.050	240.427	133.238	205.134	327.666	27.554	465.703	120.363	62.763	104.737	599.533	727.777
0.000	0.000	0.000	544.004	283.634	496.800	427.778	191.108	520.782	337.317	294.300	129.611	264.194	240.321	133.294	205.148	327.696	27.595	465.709	120.356	62.766	104.709	599.390	728.273
0.000	0.000	0.000	544.012	283.629	496.806	427.836	191.015	520.880	337.317	294.254	129.638	263.981	240.469	133.216	205.144	327.694	27.604	465.691	120.329	62.767	104.694	599.305	728.667
0.000	0.000	0.000	544.056	283.608	496.834	427.869	190.965	520.957	337.330	294.250	129.664	264.134	240.325	133.272	205.170	327.674	27.656	465.712	120.306	62.777	104.733	599.232	728.975
0.000	0.000	0.000	544.088	283.551	496.858	427.940	190.892	521.008	337.325	294.216	129.675	264.140	240.313	133.322	205.162	327.657	27.637	465.688	120.318	62.794	104.737	599.159	729.284
0.000	0.000	0.000	544.136	283.489	496.901	428.007	190.804	521.054	337.350	294.202	129.729	264.102	240.312	133.364	205.177	327.647	27.666	465.697	120.274	62.775	104.760	599.023	729.651
0.000	0.000	0.000	544.161	283.430	496.926	428.069	190.733	521.125	337.353	294.232	129.735	264.139	240.337	133.396	205.208	327.680	27.676	465.702	120.281	62.777	104.802	598.862	730.190
0.000	0.000	0.000	544.217	283.320	496.990	428.099	190.670	521.131	337.399	294.244	129.762	264.221	240.283	133.536	205.222	327.721	27.731	465.698	120.282	62.773	104.846	598.682	730.665
0.000	0.000	0.000	544.296	283.269	497.041	428.183	190.534	521.204	337.428	294.183	129.799	264.109	240.395	133.494	205.249	327.740	27.783	465.713	120.270	62.752	104.890	598.500	731.087
0.000	0.000	0.000	544.334	283.175	497.075	428.217	190.437	521.236	337.407	294.133	129.821	264.232	240.359	133.544	205.231	327.743	27.802	465.724	120.269	62.763	104.997	598.372	731.493
0.000	0.000	0.000	544.346	283.049	497.103	428.290	190.347	521.246	337.427	294.130	129.857	264.263	240.260	133.627	205.242	327.753	27.814	465.697	120.241	62.736	105.028	598.139	731.860
0.000	0.000	0.000	544.378	282.953	497.161	428.369	190.168	521.298	337.427	294.132	129.832	264.286	240.215	133.635	205.258	327.732	27.787	465.698	120.235	62.722	105.105	597.935	732.342
0.000	0.000	0.000	544.423	282.811	497.173	428.388	190.043	521.325	337.440	294.059	129.869	264.276	240.168	133.593	205.257	327.696	27.838	465.705	120.194	62.737	105.246	597.693	732.837
0.000	0.000	0.000	544.428	282.686	497.193	428.489	189.878	521.365	337.470	294.084	129.914	264.335	240.123	133.697	205.275	327.709	27.849	465.705	120.228	62.712	105.381	597.457	733.242
0.000	0.000	0.000	544.469	282.552	497.194	428.556	189.721	521.427	337.495	294.072	129.918	264.374	240.062	133.724	205.293	327.727	27.862	465.711	120.217	62.689	105.539	597.203	733.712
0.000	0.000	0.000	544.496	282.417	497.258	428.623	189.626	521.459	337.479	294.029	129.942	264.228	240.148	133.640	205.307	327.730	27.900	465.712	120.192	62.687	105.597	596.962	734.173
0.000	0.000	0.000	544.525	282.274	497.263	428.595	189.528	521.414	337.480	293.975	129.958	264.208	240.166	133.679	205.288	327.713	27.892	465.692	120.197	62.679	105.655	596.679	734.633
0.000	0.000	0.000	544.546	282.105	497.252	428.629	189.375	521.432	337.481	293.930	129.971	264.256	240.123	133.740	205.310	327.737	27.940	465.700	120.200	62.659	105.780	596.488	734.991
0.000	0.000	0.000	544.592	281.951	497.236	428.669	189.239	521.495	337.464	293.929	129.961	264.284	240.025	133.714	205.293	327.741	27.920	465.709	120.184	62.639	105.953	596.225	735.394
0.000	0.000	0.000	544.611	281.782	497.268	428.747	189.101	521.475	337.462	293.876	130.003	264.192	240.094	133.712	205.296	327.743	27.928	465.685	120.189	62.647	105.941	595.883	735.811
0.000	0.000	0.000	544.651	281.565	497.215	428.790	188.955	521.481	337.457	293.823	130.041	264.241	239.943	133.745	205.285	327.666	27.968	465.701	120.171	62.614	106.017	595.534	736.289
0.000	0.000	0.000	544.660	281.362	497.215	428.851	188.795	521.531	337.433	293.846	130.072	264.211	239.943	133.723	205.297	327.700	27.931	465.702	120.135	62.587	106.243	595.332	736.781
0.000	0.000	0.000	544.702	281.217	497.217	428.912	188.657	521.510	337.445	293.802	130.084	264.281	239.811	133.831	205.302	327.687	27.946	465.700	120.149	62.583	106.411	595.110	737.133
0.000	0.000	0.000	544.730	281.037	497.214	428.912	188.524	521.505	337.433	293.739	130.128	264.294	239.744	133.805	205.304	327.647	28.021	465.721	120.130	62.598	106.495	594.904	737.464
0.000	0.000	0.000	544.784	280.886	497.221	428.957	188.367	521.518	337.440	293.680	130.155	264.287	239.759	133.864	205.285	327.680	28.035	465.732	120.131	62.574	106.533	594.645	737.845
0.000	0.000	0.000	544.832	280.695	497.238	428.969	188.208	521.532	337.445	293.638	130.210	264.135	239.834	133.837	205.309	327.704	28.059	465.693	120.142	62.565	106.521	594.387	738.236
0.000	0.000	0.000	544.889	280.499	497.229	429.012	188.037	521.553	337.436	293.633	130.234	264.276	239.615	133.906	205.280	327.699	28.085	465.712	120.140	62.518	106.589	594.174	738.556
0.000	0.000	0.000	544.929	280.303	497.222	429.076	187.834	521.574	337.419	293.598	130.221	264.261	239.643	133.937	205.315	327.712	28.063	465.711	120.131	62.531	106.641	593.928	738.836
0.000	0.000	0.000	544.967	280.093	497.262	429.140	187.639	521.582	337.421	293.568	130.260	264.269	239.584	133.890	205.335	327.631	28.118	465.728	120.086	62.519	106.793	593.798	739.177
0.000	0.000	0.000	544.986	279.904	497.191	429.221	187.424	521.595	337.444	293.557	130.290	264.286	239.549	133.915	205.344	327.631	28.116	465.743	120.082	62.517	106.811	593.588	739.444
0.000	0.000	0.000	545.020	279.656	497.171	429.264	187.213	521.581	337.466	293.531	130.294	264.323	239.470	133.964	205.353	327.626	28.147	465.736	120.051	62.498	106.902	593.450	739.782
0.000	0.000	0.000	545.022	279.447	497.216	429.298	187.001	521.592	337.459	293.537	130.311	264.310	239.474	133.958	205.371	327.660	28.174	465.759	120.048	62.486	106.932	593.279	740.118
0.000	0.000	0.000	545.024	279.206	497.239	429.306	186.795	521.589	337.459	293.575	130.194	264.362	239.428	133.983	205.362	327.666	28.188	465.755	120.075	62.466	107.027	593.195	740.390
0.000	0.000	0.000	545.062	278.943	497.244	429.361	186.590	521.604	337.452	293.530	130.213	264.277	239.490	133.963	205.373	327.688	28.211	465.750	120.075	62.463	107.123	593.123	740.657
0.000	0.000	0.000	545.106	278.712	497.224	429.350	186.430	521.532	337.460	293.487	130.236	264.323	239.378	133.998	205.349	327.653	28.189	465.769	120.067	62.434	107.221	592.975	740.963
0.000	0.000	0.000	545.093	278.440	497.206	429.412	186.246	521.481	337.424	293.450	130.238	264.263	239.354	133.978	205.343	327.650	28.212	465.769	120.047	62.426	107.269	592.885	741.281
0.000	0.000	0.000	545.146	278.194	497.187	429.512	186.027	521.469	337.429	293.407	130.253	264.250	239.243	134.010	205.345	327.607	28.220	465.785	120.013	62.396	107.323	592.684	741.665
0.000	0.000	0.000	545.176	277.976	497.183	429.494	185.833	521.487	337.411	293.348	130.279	264.307	239.153	134.015	205.370	327.614	28.210	465.775	119.983	62.391	107.373	592.563	741.924
0.000	0.000	0.000	545.187	277.752	497.192	429.551	185.628	521.454	337.417	293.315	130.297	264.377	239.056	134.044	205.355	327.585	28.236	465.768	120.001	62.374	107.382	592.460	742.202
0.000	0.000	0.000	545.208	277.570	497.158	429.581	185.477	521.454	337.423	293.296	130.305	264.332	239.058	134.043	205.390	327.605	28.253	465.789	119.989	62.387	107.460	592.414	742.481
0.000	0.000	0.000	545.233	277.336	497.137	429.582	185.267	521.488	337.391	293.247	130.356	264.253	239.114	133.950	205.340	327.588	28.298	465.771	119.999	62.340	107.566	592.370	742.772
0.000	0.000	0.000	545.286	277.079	497.150	429.596	185.087	521.485	337.405	293.224	130.381	264.286	239.049	134.065	205.389	327.636	28.295	465.798	119.988	62.327	107.697	592.350	743.098
0.000	0.000	0.000	545.279	276.822	497.097	429.614	184.895	521.436	337.284	293.151	130.635	264.246	239.040	134.031	205.378	327.605	28.297	465.833	119.937	62.264	107.804	592.268	743.399
0.000	0.000	0.000	545.264	276.588	497.091	429.606	184.707	521.420	337.386	293.162	130.400	264.103	239.091	133.884	205.360	327.605	28.323	465.821	119.938	62.247	107.886	592.201	743.724
0.000	0.000	0.000	545.256	276.314	497.093	429.649	184.447	521.421	337.403	293.128	130.382	264.218	238.961	133.980	205.355	327.561	28.322	465.837	119.917	62.249	107.923	592.084	744.031
0.000	0.000	0.000	545.234	276.107	497.093	429.644	184.233	521.415	337.371	293.073	130.376	264.414	238.787	134.085	205.370	327.560	28.343	465.835	119.915	62.248	107.939	591.861	744.448
0.000	0.000	0.000	545.220	275.870	497.079	429.651	184.068	521.405	337.376	293.088	130.406	264.331	238.871	134.036	205.412	327.573	28.314	465.861	119.907	62.238	108.044	591.742	744.803
0.000	0.000	0.000	545.158	275.614	497.084	429.607	183.839	521.415	337.406	293.079	130.428	264.266	238.898	133.997	205.388	327.599	28.322	465.846	119.914	62.241	108.133	591.670	745.063
0.000	0.000	0.000	545.171	275.395	497.134	429.532	183.712	521.397	337.383	293.042	130.430	264.355	238.811	134.024	205.388	327.586	28.341	465.839	119.889	62.219	108.247	591.630	745.385
0.000	0.000	0.000	545.123	275.202	497.141	429.475	183.546	521.429	337.378	293.055	130.426	264.340	238.758	133.971	205.400	327.634	28.368	465.805	119.905	62.221	108.456	591.601	745.696
0.000	0.000	0.000	545.100	274.993	497.245	429.399	183.461	521.369	337.346	292.991	130.441	264.285	238.760	133.978	205.387	327.590	28.357	465.821	119.894	62.231	108.457	591.459	746.081
0.000	0.000	0.000	545.040	274.773	497.250	429.355	183.251	521.407	337.351	292.960	130.469	264.190	238.804	133.950	205.377	327.611	28.371	465.845	119.878	62.219	108.517	591.339	746.470
0.000	0.000	0.000	545.007	274.572	497.277	429.351	183.080	521.400	337.335	292.925	130.492	264.271	238.704	133.911	205.384	327.590	28.366	465.822	119.885	62.235	108.580	591.220	746.836
0.000	0.000	0.000	544.948	274.361	497.288	429.388	182.854	521.391	337.348	292.934	130.521	264.289	238.632	133.994	205.405	327.558	28.355	465.819	119.887	62.246	108.672	591.078	747.181
0.000	0.000	0.000	544.847	274.159	497.320	429.250	182.706	521.454	337.315	292.895	130.515	264.231	238.686	134.017	205.397	327.563	28.363	465.853	119.867	62.216	108.776	590.965	747.592
0.000	0.000	0.000	544.779	273.944	497.400	429.129	182.588	521.493	337.210	292.857	130.744	264.302	238.577	133.992	205.402	327.579	28.379	465.826	119.855	62.244	108.893	590.902	747.868
0.000	0.000	0.000	544.717	273.755	497.453	429.035	182.459	521.510	337.346	292.913	130.525	264.343	238.591	134.049	205.443	327.628	28.384	465.816	119.858	62.231	108.890	590.832	748.272
0.000	0.000	0.000	544.652	273.555	497.518	428.889	182.328	521.550	337.221	292.855	130.761	264.254	238.691	134.010	205.415	327.648	28.369	465.816	119.863	62.199	109.000	590.745	748.833
0.000	0.000	0.000	544.562	273.344	497.604	428.775	182.179	521.583	337.203	292.862	130.758	264.286	238.677	134.052	205.447	327.671	28.399	465.815	119.866	62.192	109.055	590.688	749.239
0.000	0.000	0.000	544.495	273.173	497.674	428.620	182.076	521.599	337.343	292.914	130.528	264.233	238.781	133.981	205.425	327.647	28.391	465.833	119.863	62.177	109.181	590.645	749.666
0.000	0.000	0.000	544.414	273.039	497.744	428.509	181.946	521.655	337.381	292.905	130.540	264.317	238.688	134.025	205.463	327.684	28.411	465.856	119.836	62.192	109.263	590.515	750.050
0.000	0.000	0.000	544.330	272.902	497.774	428.376	181.819	521.656	337.361	292.881	130.541	264.376	238.612	134.091	205.471	327.654	28.398	465.879	119.826	62.164	109.343	590.392	750.548
0.000	0.000	0.000	544.260	272.758	497.821	428.263	181.763	521.698	337.379	292.861	130.515	264.334	238.621	133.955	205.493	327.632	28.416	465.901	119.811	62.184	109.349	590.227	751.037
0.000	0.000	0.000	544.148	272.643	497.870	428.120	181.698	521.729	337.205	292.840	130.751	264.310	238.579	133.935	205.516	327.656	28.368	465.867	119.793	62.166	109.353	590.115	751.521
0.000	0.000	0.000	544.089	272.538	497.909	428.015	181.655	521.760	337.207	292.844	130.752	264.294	238.618	133.877	205.491	327.665	28.391	465.866	119.804	62.167	109.430	590.116	751.965
0.000	0.000	0.000	543.987	272.490	497.945	427.878	181.662	521.751	337.277	292.818	130.506	264.195	238.617	133.868	205.454	327.657	28.344	465.855	119.803	62.165	109.546	590.074	752.437
0.000	0.000	0.000	543.884	272.414	497.949	427.737	181.694	521.755	337.105	292.766	130.767	264.132	238.649	133.804	205.452	327.681	28.331	465.819	119.797	62.150	109.570	589.985	753.089
0.000	0.000	0.000	543.799	272.407	497.957	427.704	181.703	521.754	337.068	292.710	130.763	264.219	238.493	133.887	205.437	327.650	28.299	465.827	119.818	62.188	109.580	589.870	753.739
0.000	0.000	0.000	543.701	272.410	497.948	427.571	181.786	521.733	337.154	292.760	130.564	264.139	238.514	133.797	205.417	327.620	28.241	465.855	119.799	62.199	109.592	589.766	754.247
0.000	0.000	0.000	543.555	272.436	497.942	427.500	181.782	521.776	336.987	292.680	130.763	264.123	238.465	133.692	205.396	327.579	28.212	465.837	119.802	62.188	109.699	589.751	754.699
0.000	0.000	0.000	543.439	272.529	497.966	427.432	181.867	521.801	336.923	292.660	130.780	264.060	238.441	133.661	205.389	327.544	28.180	465.826	119.776	62.185	109.748	589.657	755.307
0.000	0.000	0.000	543.318	272.625	497.938	427.376	181.945	521.851	336.993	292.648	130.567	264.145	238.283	133.758	205.367	327.500	28.164	465.828	119.814	62.210	109.718	589.580	755.930
0.000	0.000	0.000	543.193	272.765	497.897	427.283	182.070	521.910	336.765	292.586	130.773	263.962	238.352	133.593	205.357	327.527	28.155	465.803	119.825	62.199	109.819	589.585	756.524
0.000	0.000	0.000	543.042	272.919	497.868	427.197	182.235	521.928	336.718	292.560	130.793	263.903	238.294	133.553	205.312	327.543	28.112	465.815	119.856	62.237	109.908	589.553	757.212
0.000	0.000	0.000	542.890	273.150	497.809	427.130	182.397	521.956	336.628	292.509	130.824	263.798	238.301	133.529	205.281	327.520	28.116	465.787	119.876	62.253	109.848	589.494	757.826
0.000	0.000	0.000	542.730	273.350	497.745	427.104	182.601	522.038	336.532	292.461	130.854	263.749	238.209	133.564	205.244	327.488	28.086	465.790	119.907	62.253	109.825	589.404	758.443
0.000	0.000	0.000	542.592	273.615	497.716	427.078	182.779	522.082	336.570	292.470	130.657	263.680	238.168	133.494	205.234	327.448	28.048	465.787	119.933	62.284	109.839	589.376	758.947
0.000	0.000	0.000	542.471	273.838	497.708	427.100	182.993	522.149	336.393	292.450	130.869	263.619	238.077	133.472	205.214	327.396	28.012	465.789	119.910	62.297	109.935	589.376	759.493
0.000	0.000	0.000	542.288	274.131	497.738	427.090	183.195	522.233	336.340	292.397	130.872	263.482	238.061	133.495	205.219	327.377	27.986	465.774	119.946	62.309	109.873	589.207	760.235
0.000	0.000	0.000	542.101	274.432	497.719	427.079	183.405	522.283	336.268	292.419	130.851	263.495	237.997	133.474	205.183	327.353	27.986	465.767	119.982	62.336	109.893	589.096	760.899
0.000	0.000	0.000	541.945	274.785	497.715	427.072	183.660	522.365	336.257	292.431	130.896	263.406	238.033	133.520	205.151	327.353	27.916	465.766	120.037	62.365	109.908	589.124	761.372
0.000	0.000	0.000	541.780	275.146	497.720	426.996	183.946	522.412	336.171	292.404	130.857	263.381	238.032	133.473	205.132	327.368	27.904	465.761	120.049	62.364	109.936	589.103	761.919
0.000	0.000	0.000	541.648	275.457	497.733	426.972	184.199	522.524	336.144	292.436	130.864	263.356	237.970	133.498	205.131	327.364	27.894	465.764	120.116	62.357	109.848	589.037	762.578
0.000	0.000	0.000	541.513	275.838	497.757	426.885	184.477	522.594	336.142	292.447	130.870	263.343	237.987	133.501	205.085	327.345	27.834	465.795	120.117	62.383	109.889	588.992	763.132
0.000	0.000	0.000	541.307	276.178	497.749	426.866	184.728	522.666	336.096	292.490	130.850	263.277	238.021	133.487	205.065	327.309	27.810	465.782	120.152	62.387	109.913	588.979	763.666
0.000	0.000	0.000	541.150	276.498	497.785	426.809	184.925	522.773	336.076	292.495	130.864	263.287	237.943	133.477	205.054	327.271	27.802	465.785	120.161	62.404	109.923	588.921	764.204
0.000	0.000	0.000	540.939	276.834	497.853	426.716	185.229	522.904	336.071	292.543	130.851	263.223	237.941	133.437	205.004	327.230	27.762	465.805	120.181	62.429	109.896	588.896	764.779
0.000	0.000	0.000	540.767	277.154	497.865	426.651	185.497	522.962	335.986	292.534	130.848	263.308	237.871	133.464	205.013	327.233	27.730	465.810	120.220	62.424	109.895	588.932	765.277
0.000	0.000	0.000	540.578	277.416	497.915	426.528	185.798	523.011	335.964	292.563	130.835	263.223	237.897	133.477	204.993	327.213	27.715	465.811	120.238	62.431	109.935	589.026	765.720
0.000	0.000	0.000	540.403	277.746	497.960	426.436	186.082	523.107	335.951	292.575	130.826	263.172	237.944	133.441	204.960	327.227	27.716	465.812	120.271	62.491	109.989	589.144	766.195
0.000	0.000	0.000	540.270	278.002	498.022	426.290	186.359	523.175	335.920	292.602	130.828	263.091	237.913	133.455	204.929	327.204	27.710	465.821	120.311	62.459	110.065	589.274	766.611
0.000	0.000	0.000	540.139	278.305	498.149	426.191	186.642	523.161	335.868	292.575	130.838	263.116	237.871	133.444	204.940	327.203	27.680	465.836	120.344	62.501	109.988	589.301	767.015
0.000	0.000	0.000	539.999	278.606	498.136	426.146	186.861	523.224	335.836	292.613	130.798	263.083	237.892	133.459	204.932	327.197	27.644	465.869	120.373	62.512	109.973	589.344	767.453
0.000	0.000	0.000	539.846	278.888	498.190	426.092	187.088	523.248	335.811	292.607	130.809	263.103	237.782	133.405	204.903	327.144	27.618	465.860	120.386	62.509	109.905	589.404	767.905
0.000	0.000	0.000	539.705	279.149	498.247	426.034	187.311	523.265	335.705	292.642	130.751	263.068	237.761	133.356	204.894	327.124	27.596	465.872	120.410	62.545	109.944	589.525	768.249
0.000	0.000	0.000	539.559	279.418	498.331	425.966	187.520	523.252	335.717	292.637	130.786	263.066	237.695	133.356	204.891	327.094	27.585	465.886	120.457	62.542	109.937	589.668	768.519
0.000	0.000	0.000	539.449	279.670	498.353	425.824	187.748	523.227	335.649	292.677	130.762	263.045	237.659	133.340	204.866	327.104	27.546	465.891	120.481	62.565	109.952	589.807	768.795
0.000	0.000	0.000	539.312	279.888	498.423	425.759	187.990	523.244	335.646	292.697	130.743	262.945	237.703	133.318	204.858	327.100	27.530	465.872	120.499	62.584	109.952	589.986	769.009
0.000	0.000	0.000	539.195	280.139	498.490	425.665	188.202	523.286	335.603	292.689	130.728	262.953	237.708	133.269	204.850	327.124	27.534	465.883	120.534	62.572	109.933	590.218	769.229
0.000	0.000	0.000	539.022	280.343	498.525	425.572	188.352	523.303	335.553	292.687	130.697	262.901	237.752	133.258	204.810	327.137	27.457	465.897	120.535	62.583	109.895	590.420	769.402
0.000	0.000	0.000	538.877	280.532	498.548	425.485	188.577	523.334	335.553	292.737	130.709	262.824	237.774	133.321	204.780	327.110	27.463	465.855	120.563	62.591	109.886	590.629	769.553
0.000	0.000	0.000	538.738	280.724	498.635	425.405	188.769	523.289	335.564	292.729	130.702	262.894	237.692	133.271	204.783	327.087	27.450	465.876	120.581	62.605	109.827	590.831	769.678
0.000	0.000	0.000	538.618	280.916	498.686	425.351	188.925	523.352	335.554	292.802	130.651	262.844	237.810	133.226	204.792	327.089	27.392	465.893	120.575	62.620	109.760	591.052	769.754
0.000	0.000	0.000	538.489	281.096	498.744	425.239	189.150	523.346	335.572	292.804	130.642	262.870	237.777	133.268	204.803	327.102	27.396	465.893	120.614	62.609	109.706	591.232	769.859
0.000	0.000	0.000	538.347	281.243	498.814	425.135	189.287	523.393	335.570	292.836	130.621	262.865	237.781	133.225	204.786	327.067	27.411	465.922	120.582	62.635	109.593	591.460	769.903
0.000	0.000	0.000	538.247	281.365	498.875	424.984	189.480	523.461	335.592	292.878	130.613	262.858	237.812	133.196	204.777	327.096	27.369	465.930	120.620	62.633	109.521	591.658	769.952
0.000	0.000	0.000	538.149	281.522	498.911	424.852	189.634	523.494	335.578	292.891	130.550	262.811	237.834	133.130	204.845	327.120	27.343	465.913	120.650	62.633	109.461	591.845	769.954
0.000	0.000	0.000	538.031	281.623	498.959	424.710	189.804	523.516	335.601	292.907	130.540	262.789	237.859	133.182	204.784	327.114	27.352	465.899	120.620	62.656	109.307	592.028	769.867
0.000	0.000	0.000	537.907	281.762	498.991	424.555	189.977	523.559	335.588	292.921	130.512	262.687	238.010	133.055	204.765	327.088	27.339	465.883	120.665	62.665	109.178	592.197	769.877
0.000	0.000	0.000	537.797	281.886	499.004	424.425	190.068	523.572	335.520	292.909	130.478	262.705	237.907	133.019	204.754	327.075	27.331	465.920	120.655	62.660	109.098	592.358	769.898
0.000	0.000	0.000	537.671	281.984	498.984	424.318	190.226	523.574	335.492	292.897	130.446	262.675	237.906	132.957	204.768	327.073	27.284	465.892	120.652	62.674	108.968	592.505	769.849
0.000	0.000	0.000	537.551	282.118	499.018	424.221	190.351	523.575	335.497	292.905	130.476	262.600	237.918	132.873	204.733	327.039	27.242	465.892	120.658	62.675	108.846	592.686	769.755
0.000	0.000	0.000	537.453	282.203	499.027	424.114	190.470	523.586	335.436	292.868	130.453	262.626	237.847	132.787	204.707	327.031	27.243	465.911	120.647	62.692	108.737	592.857	769.750
0.000	0.000	0.000	537.361	282.319	499.050	423.972	190.586	523.616	335.430	292.854	130.434	262.635	237.819	132.849	204.752	327.039	27.217	465.904	120.648	62.695	108.626	593.017	769.723
0.000	0.000	0.000	537.233	282.423	499.058	423.908	190.733	523.609	335.385	292.860	130.434	262.562	237.838	132.753	204.710	327.037	27.205	465.878	120.673	62.706	108.522	593.212	769.701
0.000	0.000	0.000	537.130	282.544	499.030	423.759	190.876	523.627	335.334	292.838	130.446	262.524	237.745	132.726	204.689	327.004	27.211	465.909	120.690	62.694	108.440	593.403	769.576
0.000	0.000	0.000	537.047	282.624	499.028	423.656	190.975	523.684	335.295	292.842	130.393	262.530	237.780	132.770	204.676	327.019	27.171	465.879	120.703	62.684	108.379	593.571	769.517
0.000	0.000	0.000	536.915	282.725	499.067	423.508	191.111	523.716	335.266	292.831	130.410	262.455	237.773	132.689	204.668	327.015	27.195	465.897	120.693	62.702	108.277	593.712	769.481
0.000	0.000	0.000	536.865	282.856	499.074	423.450	191.188	523.723	335.276	292.818	130.408	262.497	237.753	132.727	204.649	326.973	27.130	465.915	120.717	62.698	108.171	593.882	769.313
0.000	0.000	0.000	536.767	282.950	499.091	423.371	191.284	523.794	335.255	292.849	130.378	262.414	237.763	132.616	204.641	326.987	27.101	465.910	120.728	62.709	108.101	594.016	769.221
0.000	0.000	0.000	536.612	283.060	499.105	423.287	191.374	523.799	335.239	292.849	130.379	262.528	237.709	132.637	204.627	326.984	27.082	465.895	120.734	62.723	108.028	594.162	769.143
0.000	0.000	0.000	536.538	283.177	499.102	423.181	191.497	523.847	335.169	292.845	130.340	262.379	237.764	132.591	204.608	326.978	27.067	465.902	120.736	62.744	107.935	594.360	769.075
0.000	0.000	0.000	536.401	283.281	499.133	423.117	191.571	523.860	335.162	292.841	130.345	262.378	237.749	132.549	204.642	326.994	27.070	465.899	120.741	62.744	107.935	594.516	768.957
0.000	0.000	0.000	536.302	283.404	499.123	423.000	191.672	523.873	335.136	292.856	130.358	262.334	237.761	132.538	204.616	326.979	27.019	465.866	120.764	62.754	107.801	594.695	768.888
0.000	0.000	0.000	536.187	283.497	499.133	422.915	191.785	523.904	335.132	292.844	130.356	262.358	237.712	132.570	204.608	326.988	27.019	465.871	120.800	62.763	107.744	594.855	768.813
0.000	0.000	0.000	536.074	283.631	499.197	422.824	191.870	523.924	335.078	292.845	130.341	262.365	237.738	132.550	204.580	326.960	26.997	465.881	120.800	62.772	107.619	594.971	768.704
0.000	0.000	0.000	535.964	283.763	499.227	422.726	191.979	523.986	335.016	292.835	130.328	262.277	237.727	132.481	204.561	326.923	26.993	465.870	120.797	62.808	107.548	595.100	768.661
0.000	0.000	0.000	535.882	283.877	499.258	422.648	192.051	524.018	335.006	292.824	130.341	262.246	237.707	132.476	204.565	326.938	26.959	465.872	120.823	62.812	107.465	595.267	768.555
0.000	0.000	0.000	535.771	284.037	499.297	422.587	192.159	524.058	334.979	292.831	130.352	262.283	237.652	132.538	204.576	326.929	26.945	465.873	120.820	62.840	107.350	595.408	768.429
0.000	0.000	0.000	535.630	284.146	499.351	422.493	192.237	524.125	334.957	292.828	130.365	262.165	237.688	132.470	204.558	326.934	26.957	465.874	120.837	62.843	107.274	595.569	768.271
0.000	0.000	0.000	535.520	284.273	499.398	422.375	192.336	524.175	334.912	292.791	130.395	262.213	237.632	132.525	204.589	326.972	26.954	465.838	120.850	62.853	107.235	595.744	768.101
0.000	0.000	0.000	535.362	284.392	499.418	422.285	192.439	524.243	334.906	292.790	130.401	262.143	237.686	132.488	204.555	326.946	26.933	465.814	120.895	62.925	107.178	596.006	767.903
0.000	0.000	0.000	535.250	284.476	499.400	422.145	192.502	524.321	334.870	292.786	130.391	262.155	237.661	132.548	204.567	326.960	26.923	465.804	120.905	62.933	107.053	596.144	767.675
0.000	0.000	0.000	535.141	284.568	499.414	422.030	192.583	524.377	334.859	292.749	130.375	262.083	237.731	132.417	204.549	326.948	26.905	465.868	120.882	62.884	106.994	596.351	767.468
0.000	0.000	0.000	534.966	284.655	499.497	421.944	192.622	524.453	334.845	292.758	130.376	262.122	237.637	132.468	204.527	326.937	26.879	465.805	120.910	62.961	106.863	596.465	767.266
0.000	0.000	0.000	534.831	284.722	499.495	421.797	192.679	524.492	334.824	292.780	130.380	262.027	237.675	132.425	204.530	326.925	26.880	465.825	120.860	62.901	106.741	596.575	767.084
0.000	0.000	0.000	534.728	284.761	499.497	421.721	192.698	524.575	334.791	292.783	130.374	262.091	237.576	132.479	204.500	326.926	26.860	465.831	120.895	62.973	106.592	596.672	766.897
0.000	0.000	0.000	534.632	284.839	499.523	421.547	192.774	524.606	334.782	292.750	130.385	262.028	237.628	132.388	204.509	326.881	26.855	465.823	120.896	62.970	106.421	596.765	766.691
0.000	0.000	0.000	534.523	284.884	499.530	421.397	192.836	524.649	334.734	292.773	130.355	262.018	237.617	132.449	204.514	326.910	26.849	465.821	120.924	62.999	106.236	596.858	766.419
0.000	0.000	0.000	534.403	284.928	499.544	421.252	192.894	524.656	334.715	292.723	130.387	261.937	237.662	132.360	204.480	326.902	26.839	465.819	120.931	62.974	106.124	596.982	766.146
0.000	0.000	0.000	534.316	284.967	499.579	421.095	192.931	524.697	334.687	292.730	130.402	261.915	237.656	132.389	204.477	326.878	26.836	465.793	120.950	62.991	106.015	597.117	765.869
0.000	0.000	0.000	534.215	284.956	499.706	421.033	192.932	524.762	334.643	292.713	130.382	261.959	237.623	132.412	204.478	326.894	26.844	465.782	120.954	62.997	105.850	597.212	765.554
0.000	0.000	0.000	534.151	284.987	499.777	420.867	192.968	524.772	334.655	292.716	130.402	261.902	237.621	132.435	204.476	326.913	26.831	465.812	120.944	62.981	105.758	597.344	765.230
0.000	0.000	0.000	534.035	284.994	499.854	420.719	192.948	524.830	334.615	292.699	130.415	261.899	237.553	132.352	204.515	326.886	26.814	465.813	120.967	63.045	105.630	597.482	764.897
0.000	0.000	0.000	533.950	285.004	499.943	420.607	192.959	524.808	334.600	292.661	130.422	261.892	237.573	132.380	204.481	326.884	26.808	465.794	120.964	63.035	105.441	597.502	764.636
0.000	0.000	0.000	533.854	284.992	500.071	420.519	192.936	524.855	334.598	292.684	130.435	261.877	237.493	132.343	204.451	326.868	26.812	465.769	120.954	63.052	105.292	597.572	764.382
0.000	0.000	0.000	533.814	285.009	500.155	420.376	192.964	524.825	334.578	292.655	130.444	261.801	237.559	132.337	204.495	326.888	26.807	465.772	120.962	63.067	105.101	597.641	764.039
0.000	0.000	0.000	533.728	284.997	500.242	420.300	192.960	524.831	334.536	292.686	130.436	261.793	237.571	132.353	204.433	326.887	26.814	465.746	120.976	63.089	104.972	597.735	763.703
0.000	0.000	0.000	533.620	284.982	500.332	420.219	192.910	524.811	334.531	292.631	130.449	261.766	237.556	132.325	204.459	326.899	26.779	465.733	121.016	63.100	104.906	597.870	763.355
0.000	0.000	0.000	533.587	284.980	500.413	420.097	192.918	524.788	334.527	292.636	130.459	261.768	237.506	132.288	204.451	326.881	26.776	465.735	121.020	63.121	104.766	597.982	763.012
0.000	0.000	0.000	533.529	284.963	500.493	420.032	192.891	524.763	334.499	292.629	130.459	261.832	237.411	132.339	204.446	326.887	26.745	465.725	121.021	63.097	104.645	598.117	762.618
0.000	0.000	0.000	533.506	284.956	500.581	419.956	192.870	524.760	334.444	292.619	130.463	261.809	237.459	132.343	204.441	326.859	26.728	465.743	121.016	63.133	104.449	598.199	762.233
0.000	0.000	0.000	533.451	284.941	500.674	419.921	192.850	524.718	334.459	292.608	130.472	261.798	237.363	132.347	204.461	326.883	26.750	465.751	121.037	63.136	104.252	598.267	761.842
0.000	0.000	0.000	533.370	284.937	500.716	419.813	192.820	524.697	334.460	292.575	130.490	261.803	237.385	132.345	204.467	326.859	26.732	465.767	121.034	63.120	104.080	598.360	761.467
0.000	0.000	0.000	533.346	284.907	500.747	419.749	192.787	524.678	334.450	292.566	130.497	261.702	237.376	132.308	204.455	326.850	26.765	465.769	121.044	63.110	103.922	598.474	761.045
0.000	0.000	0.000	533.315	284.874	500.818	419.700	192.743	524.627	334.432	292.551	130.487	261.728	237.335	132.374	204.479	326.886	26.787	465.763	121.036	63.082	103.717	598.568	760.593
0.000	0.000	0.000	533.285	284.829	500.860	419.612	192.690	524.631	334.433	292.542	130.500	261.725	237.354	132.314	204.448	326.860	26.746	465.773	121.033	63.083	103.581	598.652	760.231
0.000	0.000	0.000	533.217	284.736	500.860	419.527	192.640	524.562	334.434	292.554	130.473	261.688	237.379	132.262	204.420	326.855	26.742	465.785	121.002	63.062	103.382	598.686	759.845
0.000	0.000	0.000	533.186	284.646	500.917	419.478	192.542	524.552	334.383	292.504	130.462	261.647	237.379	132.235	204.428	326.838	26.723	465.780	120.974	63.036	103.215	598.778	759.424
0.000	0.000	0.000	533.156	284.575	500.956	419.443	192.461	524.512	334.340	292.479	130.460	261.692	237.262	132.265	204.431	326.834	26.731	465.802	120.957	63.049	103.032	598.868	759.001
0.000	0.000	0.000	533.141	284.493	500.963	419.384	192.369	524.482	334.368	292.476	130.507	261.657	237.197	132.247	204.403	326.789	26.734	465.814	120.972	63.049	102.965	599.005	758.596
0.000	0.000	0.000	533.131	284.410	500.943	419.314	192.333	524.417	334.349	292.463	130.490	261.660	237.233	132.243	204.429	326.823	26.733	465.813	120.946	63.049	102.863	599.123	758.208
0.000	0.000	0.000	533.132	284.326	500.959	419.268	192.248	524.402	334.354	292.412	130.499	261.631	237.177	132.170	204.417	326.798	26.730	465.790	120.953	63.063	102.683	599.145	757.805
0.000	0.000	0.000	533.117	284.250	500.958	419.192	192.241	524.369	334.330	292.415	130.505	261.523	237.214	132.126	204.399	326.815	26.749	465.802	120.959	63.026	102.525	599.187	757.457
0.000	0.000	0.000	533.099	284.175	500.924	419.135	192.178	524.349	334.302	292.381	130.488	261.627	237.073	132.175	204.403	326.821	26.741	465.834	120.979	63.006	102.304	599.215	757.037
0.000	0.000	0.000	533.086	284.067	500.924	419.104	192.078	524.320	334.308	292.349	130.501	261.575	237.133	132.160	204.420	326.842	26.756	465.815	120.947	63.002	102.206	599.314	756.682
0.000	0.000	0.000	533.089	283.975	500.896	419.062	192.011	524.337	334.302	292.331	130.493	261.545	237.059	132.215	204.452	326.823	26.754	465.805	120.950	62.984	102.187	599.410	756.259
0.000	0.000	0.000	533.093	283.932	500.911	419.005	191.948	524.312	334.284	292.330	130.497	261.595	236.948	132.210	204.449	326.784	26.742	465.849	120.954	63.007	102.127	599.514	755.861
0.000	0.000	0.000	533.073	283.824	500.858	418.984	191.874	524.314	334.300	292.314	130.503	261.644	236.892	132.240	204.402	326.775	26.765	465.844	120.934	63.002	102.083	599.601	755.480
0.000	0.000	0.000	533.096	283.780	500.854	418.919	191.826	524.288	334.272	292.279	130.519	261.593	236.902	132.175	204.419	326.757	26.736	465.849	120.931	63.000	101.980	599.578	755.195
0.000	0.000	0.000	533.101	283.702	500.876	418.935	191.743	524.279	334.241	292.260	130.504	261.521	236.913	132.160	204.420	326.786	26.781	465.834	120.927	62.992	101.829	599.615	754.901
0.000	0.000	0.000	533.092	283.657	500.817	418.889	191.715	524.296	334.244	292.279	130.519	261.516	236.920	132.194	204.395	326.773	26.760	465.826	120.941	62.986	101.719	599.624	754.573
0.000	0.000	0.000	533.128	283.604	500.855	418.836	191.693	524.229	334.265	292.253	130.511	261.466	236.917	132.157	204.423	326.793	26.770	465.813	120.952	63.002	101.597	599.675	754.185
0.000	0.000	0.000	533.112	283.531	500.801	418.814	191.665	524.216	334.267	292.271	130.500	261.574	236.852	132.187	204.431	326.787	26.773	465.827	120.947	62.982	101.553	599.748	753.813
0.000	0.000	0.000	533.137	283.514	500.787	418.800	191.628	524.182	334.255	292.258	130.519	261.545	236.845	132.126	204.426	326.794	26.749	465.855	120.960	62.972	101.521	599.828	753.439
0.000	0.000	0.000	533.138	283.470	500.758	418.783	191.554	524.139	334.255	292.236	130.534	261.541	236.824	132.183	204.423	326.754	26.779	465.859	120.963	62.960	101.474	599.881	753.064
0.000	0.000	0.000	533.151	283.431	500.779	418.783	191.541	524.108	334.238	292.228	130.528	261.604	236.757	132.190	204.402	326.768	26.760	465.854	120.960	62.958	101.393	599.895	752.784
0.000	0.000	0.000	533.154	283.422	500.738	418.793	191.432	524.099	334.217	292.250	130.520	261.659	236.652	132.182	204.404	326.757	26.762	465.878	120.948	62.944	101.255	599.870	752.514
0.000	0.000	0.000	533.139	283.383	500.704	418.768	191.447	524.077	334.214	292.247	130.530	261.531	236.802	132.110	204.372	326.738	26.759	465.884	120.957	62.956	101.208	599.897	752.263
0.000	0.000	0.000	533.122	283.385	500.718	418.736	191.384	524.037	334.218	292.209	130.529	261.574	236.745	132.161	204.390	326.745	26.757	465.889	120.963	62.953	101.054	599.891	751.999
0.000	0.000	0.000	533.099	283.333	500.752	418.680	191.336	524.059	334.219	292.222	130.538	261.523	236.750	132.126	204.435	326.792	26.776	465.850	120.978	62.957	101.013	599.935	751.683
0.000	0.000	0.000	533.090	283.321	500.739	418.666	191.292	524.056	334.231	292.230	130.552	261.568	236.726	132.166	204.400	326.775	26.764	465.881	120.965	62.950	100.930	599.918	751.333
0.000	0.000	0.000	533.063	283.293	500.762	418.635	191.234	524.054	334.219	292.211	130.532	261.615	236.758	132.248	204.428	326.790	26.768	465.889	120.960	62.961	100.853	599.966	750.992
0.000	0.000	0.000	533.001	283.245	500.736	418.597	191.164	524.041	334.206	292.230	130.547	261.546	236.750	132.155	204.437	326.770	26.765	465.918	120.946	62.922	100.838	599.978	750.647
0.000	0.000	0.000	532.968	283.212	500.804	418.560	191.122	524.031	334.213	292.219	130.561	261.634	236.678	132.146	204.415	326.775	26.776	465.869	120.993	62.970	100.718	599.977	750.363
0.000	0.000	0.000	532.926	283.189	500.835	418.524	191.060	524.023	334.212	292.209	130.525	261.643	236.650	132.163	204.423	326.767	26.759	465.875	120.961	62.980	100.623	599.939	750.025
0.000	0.000	0.000	532.905	283.106	500.875	418.437	190.978	524.033	334.203	292.230	130.562	261.596	236.706	132.124	204.423	326.780	26.755	465.872	120.967	62.970	100.531	599.934	749.744
0.000	0.000	0.000	532.871	283.071	500.914	418.347	190.931	524.001	334.217	292.214	130.551	261.568	236.735	132.102	204.422	326.786	26.766	465.889	120.978	62.990	100.361	599.915	749.463
0.000	0.000	0.000	532.806	282.976	500.932	418.321	190.887	524.004	334.210	292.209	130.539	261.577	236.798	132.111	204.431	326.802	26.769	465.866	120.968	62.963	100.313	599.945	749.130
0.000	0.000	0.000	532.788	282.900	500.997	418.229	190.811	523.975	334.213	292.214	130.534	261.589	236.747	132.185	204.413	326.809	26.764	465.868	120.971	62.972	100.264	600.010	748.808
0.000	0.000	0.000	532.723	282.801	501.012	418.125	190.761	523.970	334.240	292.183	130.533	261.611	236.769	132.167	204.417	326.812	26.755	465.865	120.968	63.001	100.149	599.961	748.497
0.000	0.000	0.000	532.679	282.694	501.057	418.056	190.668	523.949	334.223	292.192	130.560	261.520	236.738	132.085	204.409	326.785	26.753	465.878	120.963	62.978	100.027	599.946	748.132
0.000	0.000	0.000	532.672	282.566	501.088	417.977	190.568	523.924	334.209	292.199	130.549	261.505	236.759	132.097	204.424	326.800	26.753	465.887	120.949	62.954	99.975	599.953	747.830
0.000	0.000	0.000	532.621	282.425	501.097	417.911	190.459	523.914	334.231	292.173	130.565	261.618	236.622	132.131	204.456	326.783	26.729	465.894	120.949	62.989	99.841	599.895	747.564
0.000	0.000	0.000	532.591	282.312	501.141	417.844	190.372	523.903	334.207	292.156	130.553	261.528	236.677	132.060	204.432	326.778	26.751	465.893	120.945	62.985	99.684	599.826	747.255
0.000	0.000	0.000	532.516	282.189	501.153	417.727	190.292	523.863	334.194	292.136	130.563	261.522	236.702	131.998	204.426	326.785	26.763	465.896	120.951	62.992	99.545	599.769	747.015
0.000	0.000	0.000	532.456	282.045	501.195	417.613	190.224	523.854	334.198	292.145	130.564	261.462	236.750	132.030	204.443	326.804	26.751	465.949	120.958	62.934	99.376	599.745	746.698
0.000	0.000	0.000	532.416	281.937	501.202	417.454	190.138	523.787	334.171	292.093	130.550	261.518	236.723	132.066	204.447	326.807	26.781	465.869	120.965	62.975	99.247	599.758	746.384
0.000	0.000	0.000	532.335	281.781	501.228	417.436	189.991	523.767	334.184	292.112	130.575	261.487	236.723	131.992	204.409	326.822	26.767	465.863	120.960	62.972	99.122	599.734	746.048
0.000	0.000	0.000	532.310	281.660	501.252	417.281	189.925	523.737	334.190	292.087	130.566	261.461	236.718	131.984	204.459	326.838	26.758	465.909	120.924	62.922	99.014	599.706	745.756
0.000	0.000	0.000	532.233	281.494	501.280	417.196	189.812	523.672	334.177	292.111	130.567	261.441	236.751	131.977	204.463	326.829	26.741	465.918	120.951	62.949	98.919	599.670	745.437
0.000	0.000	0.000	532.185	281.389	501.322	417.106	189.720	523.645	334.183	292.098	130.564	261.496	236.737	131.936	204.456	326.827	26.743	465.896	120.951	63.004	98.781	599.636	745.080
0.000	0.000	0.000	532.133	281.253	501.360	417.020	189.581	523.697	334.176	292.063	130.550	261.501	236.646	131.936	204.480	326.817	26.726	465.896	120.949	63.002	98.672	599.598	744.814
0.000	0.000	0.000	532.073	281.153	501.430	416.858	189.464	523.573	334.139	292.043	130.541	261.583	236.591	131.921	204.464	326.824	26.772	465.886	120.955	63.021	98.535	599.523	744.597
0.000	0.000	0.000	531.981	281.063	501.449	416.725	189.396	523.557	334.134	292.063	130.534	261.471	236.746	131.860	204.454	326.850	26.748	465.848	120.924	63.045	98.427	599.504	744.397
0.000	0.000	0.000	531.912	280.963	501.506	416.575	189.329	523.501	334.141	292.054	130.537	261.486	236.746	131.879	204.457	326.866	26.728	465.842	120.975	63.032	98.303	599.430	744.203
0.000	0.000	0.000	531.850	280.897	501.542	416.504	189.217	523.493	334.123	292.019	130.541	261.457	236.712	131.758	204.444	326.883	26.699	465.851	120.970	63.077	98.157	599.361	744.067
0.000	0.000	0.000	531.747	280.813	501.554	416.317	189.202	523.438	334.141	292.037	130.549	261.409	236.754	131.732	204.455	326.850	26.723	465.828	121.010	63.079	98.039	599.264	743.901
0.000	0.000	0.000	531.680	280.711	501.583	416.224	189.079	523.454	334.101	291.976	130.555	261.378	236.726	131.698	204.477	326.843	26.722	465.850	120.999	63.111	97.887	599.142	743.729
0.000	0.000	0.000	531.562	280.647	501.583	416.148	189.007	523.432	334.124	291.998	130.551	261.479	236.689	131.772	204.451	326.830	26.718	465.836	120.998	63.131	97.770	599.039	743.589
0.000	0.000	0.000	531.445	280.605	501.613	416.019	188.948	523.420	334.094	291.988	130.531	261.389	236.712	131.661	204.451	326.823	26.732	465.854	121.018	63.120	97.623	598.886	743.401
0.000	0.000	0.000	531.305	280.507	501.648	415.890	188.877	523.416	334.098	291.985	130.530	261.541	236.571	131.802	204.438	326.819	26.719	465.841	120.991	63.125	97.506	598.741	743.313
0.000	0.000	0.000	531.172	280.448	501.708	415.730	188.817	523.425	334.085	292.026	130.524	261.418	236.699	131.713	204.437	326.850	26.687	465.815	121.001	63.149	97.397	598.641	743.182
0.000	0.000	0.000	531.039	280.380	501.809	415.610	188.754	523.428	334.088	292.016	130.533	261.525	236.586	131.766	204.422	326.857	26.708	465.814	121.040	63.141	97.286	598.500	743.075
0.000	0.000	0.000	530.924	280.337	501.828	415.487	188.683	523.429	334.070	292.008	130.523	261.525	236.657	131.708	204.459	326.890	26.718	465.807	121.014	63.148	97.191	598.388	742.972
0.000	0.000	0.000	530.777	280.281	501.886	415.362	188.604	523.463	334.069	291.990	130.547	261.471	236.700	131.641	204.474	326.883	26.723	465.822	121.014	63.162	97.097	598.253	742.831
0.000	0.000	0.000	530.630	280.214	501.954	415.243	188.491	523.515	334.095	291.997	130.559	261.396	236.701	131.660	204.475	326.886	26.732	465.806	121.013	63.154	96.982	598.106	742.744
0.000	0.000	0.000	530.553	280.158	502.049	415.147	188.429	523.524	334.083	291.968	130.546	261.383	236.723	131.662	204.469	326.863	26.732	465.831	120.994	63.177	96.902	597.963	742.621
0.000	0.000	0.000	530.381	280.074	502.106	414.993	188.300	523.532	334.087	291.996	130.571	261.482	236.644	131.767	204.479	326.872	26.679	465.816	121.013	63.165	96.842	597.864	742.507
0.000	0.000	0.000	530.270	280.033	502.213	414.869	188.218	523.574	334.036	291.966	130.553	261.364	236.723	131.660	204.490	326.890	26.728	465.825	121.034	63.177	96.738	597.741	742.385
0.000	0.000	0.000	530.149	279.963	502.290	414.738	188.138	523.617	334.020	291.943	130.575	261.360	236.651	131.666	204.455	326.893	26.710	465.803	121.022	63.202	96.680	597.617	742.313
0.000	0.000	0.000	530.037	279.856	502.379	414.620	188.013	523.677	333.996	291.946	130.584	261.323	236.689	131.616	204.446	326.900	26.716	465.787	121.051	63.189	96.615	597.518	742.231
0.000	0.000	0.000	529.949	279.798	502.471	414.477	187.963	523.713	333.987	291.928	130.611	261.273	236.703	131.636	204.485	326.914	26.728	465.769	121.027	63.185	96.588	597.422	742.161
0.000	0.000	0.000	529.829	279.693	502.576	414.367	187.831	523.747	333.978	291.872	130.597	261.282	236.628	131.650	204.479	326.904	26.725	465.781	121.038	63.195	96.491	597.334	742.091
0.000	0.000	0.000	529.720	279.577	502.636	414.280	187.673	523.822	333.971	291.856	130.639	261.318	236.624	131.692	204.500	326.899	26.723	465.769	121.033	63.188	96.452	597.213	741.989
0.000	0.000	0.000	529.637	279.503	502.753	414.074	187.595	523.881	333.970	291.878	130.657	261.293	236.574	131.629	204.498	326.880	26.734	465.778	121.020	63.228	96.397	597.131	741.921
0.000	0.000	0.000	529.540	279.395	502.824	413.997	187.509	523.963	333.947	291.851	130.662	261.341	236.539	131.648	204.475	326.893	26.762	465.766	121.027	63.269	96.340	597.063	741.856
0.000	0.000	0.000	529.502	279.298	502.987	413.869	187.422	524.003	333.974	291.827	130.679	261.364	236.472	131.651	204.484	326.890	26.773	465.768	121.031	63.224	96.282	596.953	741.755
0.000	0.000	0.000	529.426	279.210	502.997	413.771	187.343	524.034	333.977	291.806	130.695	261.334	236.490	131.649	204.509	326.909	26.782	465.780	121.026	63.277	96.230	596.930	741.625
0.000	0.000	0.000	529.345	279.107	503.141	413.674	187.266	524.080	333.942	291.816	130.685	261.285	236.525	131.640	204.514	326.945	26.805	465.749	121.044	63.286	96.149	596.876	741.533
0.000	0.000	0.000	529.287	279.000	503.185	413.526	187.185	524.091	333.932	291.784	130.704	261.393	236.400	131.734	204.487	326.907	26.791	465.749	121.034	63.301	96.082	596.782	741.417
0.000	0.000	0.000	529.235	278.891	503.262	413.451	187.093	524.113	333.911	291.768	130.705	261.288	236.506	131.615	204.482	326.913	26.794	465.752	121.038	63.312	95.975	596.705	741.323
0.000	0.000	0.000	529.195	278.783	503.321	413.376	187.020	524.085	333.892	291.759	130.733	261.268	236.586	131.637	204.489	326.914	26.814	465.754	121.031	63.313	95.932	596.629	741.213
0.000	0.000	0.000	529.116	278.662	503.353	413.316	186.891	524.124	333.906	291.758	130.774	261.284	236.485	131.617	204.506	326.909	26.829	465.720	121.043	63.322	95.809	596.515	741.061
0.000	0.000	0.000	529.064	278.559	503.377	413.268	186.754	524.123	333.881	291.723	130.747	261.330	236.433	131.646	204.492	326.904	26.837	465.752	121.024	63.347	95.747	596.425	740.919
0.000	0.000	0.000	528.987	278.433	503.413	413.171	186.670	524.117	333.905	291.707	130.764	261.337	236.421	131.642	204.511	326.927	26.865	465.763	121.023	63.319	95.649	596.333	740.738
0.000	0.000	0.000	528.937	278.329	503.452	413.143	186.517	524.139	333.911	291.729	130.793	261.400	236.350	131.713	204.519	326.923	26.863	465.765	120.992	63.296	95.560	596.218	740.533
0.000	0.000	0.000	528.879	278.232	503.453	413.058	186.427	524.154	333.927	291.713	130.797	261.292	236.478	131.662	204.551	326.972	26.873	465.778	120.993	63.306	95.475	596.155	740.359
0.000	0.000	0.000	528.811	278.143	503.473	413.053	186.259	524.152	333.918	291.681	130.807	261.347	236.390	131.700	204.535	326.964	26.928	465.788	120.987	63.306	95.493	596.133	740.126
0.000	0.000	0.000	528.798	278.019	503.495	413.042	186.109	524.141	333.906	291.600	130.960	261.319	236.456	131.675	204.537	326.973	26.901	465.793	120.995	63.284	95.403	596.041	739.897
0.000	0.000	0.000	528.760	277.920	503.528	412.977	185.970	524.171	333.933	291.705	130.807	261.344	236.488	131.703	204.534	326.966	26.925	465.781	120.985	63.301	95.257	595.949	739.590
0.000	0.000	0.000	528.699	277.823	503.525	412.947	185.816	524.179	333.969	291.676	130.825	261.445	236.377	131.731	204.564	326.991	26.915	465.780	120.903	63.286	95.245	595.873	739.360
0.000	0.000	0.000	528.684	277.668	503.545	412.906	185.663	524.151	333.957	291.667	130.823	261.542	236.278	131.760	204.601	326.975	26.931	465.800	120.941	63.270	95.234	595.803	739.137
0.000	0.000	0.000	528.675	277.538	503.531	412.884	185.521	524.134	333.959	291.574	130.965	261.484	236.254	131.700	204.603	326.984	26.941	465.834	120.925	63.232	95.134	595.730	738.901
0.000	0.000	0.000	528.703	277.433	503.566	412.829	185.406	524.079	333.978	291.662	130.806	261.512	236.305	131.681	204.585	326.961	26.947	465.829	120.927	63.209	95.039	595.606	738.644
0.000	0.000	0.000	528.687	277.278	503.600	412.744	185.278	524.021	333.969	291.641	130.802	261.406	236.421	131.623	204.618	326.995	26.950	465.833	120.877	63.230	94.879	595.484	738.399
0.000	0.000	0.000	528.649	277.122	503.558	412.773	185.130	523.948	333.962	291.641	130.800	261.447	236.370	131.631	204.612	327.022	26.947	465.841	120.893	63.187	94.734	595.358	738.127
0.000	0.000	0.000	528.620	277.000	503.593	412.714	184.991	523.930	333.990	291.634	130.772	261.472	236.377	131.579	204.609	326.988	26.958	465.817	120.896	63.190	94.572	595.244	737.764
0.000	0.000	0.000	528.628	276.837	503.613	412.721	184.854	523.846	334.002	291.632	130.781	261.519	236.328	131.632	204.605	326.996	26.966	465.832	120.866	63.167	94.389	595.115	737.432
0.000	0.000	0.000	528.599	276.649	503.629	412.660	184.717	523.795	333.996	291.634	130.794	261.534	236.319	131.597	204.641	326.988	26.957	465.828	120.828	63.167	94.146	594.936	737.032
0.000	0.000	0.000	528.596	276.518	503.695	412.625	184.558	523.726	334.030	291.617	130.793	261.600	236.267	131.660	204.646	327.015	26.986	465.850	120.838	63.139	93.974	594.800	736.751
0.000	0.000	0.000	528.541	276.330	503.745	412.529	184.406	523.691	334.038	291.627	130.794	261.585	236.274	131.600	204.646	327.003	26.997	465.837	120.819	63.158	93.884	594.764	736.433
0.000	0.000	0.000	528.476	276.157	503.808	412.456	184.260	523.641	334.057	291.623	130.812	261.611	236.299	131.579	204.644	327.029	27.006	465.868	120.803	63.119	93.677	594.677	736.052
0.000	0.000	0.000	528.463	275.961	503.853	412.343	184.114	523.570	334.086	291.571	130.824	261.562	236.362	131.616	204.637	327.020	27.034	465.872	120.802	63.118	93.479	594.587	735.710
0.000	0.000	0.000	528.463	275.782	503.938	412.258	183.953	523.520	334.061	291.552	130.804	261.669	236.249	131.537	204.673	327.021	27.042	465.893	120.815	63.127	93.351	594.529	735.369
0.000	0.000	0.000	528.392	275.579	503.977	412.202	183.761	523.460	334.077	291.545	130.809	261.672	236.258	131.525	204.655	327.033	27.038	465.872	120.798	63.118	93.160	594.423	735.053
0.000	0.000	0.000	528.317	275.367	504.060	412.091	183.608	523.419	334.043	291.555	130.775	261.571	236.413	131.419	204.686	327.052	27.043	465.894	120.818	63.114	92.965	594.336	734.741
0.000	0.000	0.000	528.278	275.176	504.076	411.941	183.422	523.332	334.081	291.539	130.754	261.616	236.338	131.395	204.676	327.032	27.036	465.911	120.778	63.113	92.766	594.214	734.448
0.000	0.000	0.000	528.234	274.988	504.105	411.862	183.249	523.314	334.061	291.538	130.749	261.606	236.364	131.320	204.681	327.037	27.027	465.928	120.777	63.093	92.606	594.118	734.126
0.000	0.000	0.000	528.138	274.815	504.126	411.763	183.071	523.218	334.079	291.540	130.766	261.692	236.297	131.351	204.671	327.032	27.026	465.924	120.776	63.120	92.430	594.055	733.799
0.000	0.000	0.000	528.078	274.630	504.176	411.638	182.914	523.211	334.081	291.535	130.752	261.648	236.345	131.262	204.689	327.035	26.990	465.923	120.767	63.136	92.190	593.989	733.462
0.000	0.000	0.000	528.003	274.482	504.209	411.500	182.806	523.151	334.060	291.533	130.741	261.651	236.374	131.288	204.708	327.058	26.995	465.907	120.774	63.159	92.009	593.989	733.190
0.000	0.000	0.000	527.908	274.286	504.225	411.336	182.658	523.061	334.041	291.548	130.712	261.591	236.427	131.258	204.703	327.096	26.989	465.876	120.803	63.176	91.869	593.970	732.922
0.000	0.000	0.000	527.794	274.130	504.273	411.242	182.524	523.006	334.030	291.537	130.715	261.710	236.363	131.265	204.694	327.112	26.963	465.877	120.825	63.217	91.794	594.005	732.651
0.000	0.000	0.000	527.700	273.960	504.304	411.094	182.366	522.956	334.063	291.550	130.714	261.681	236.366	131.195	204.693	327.100	26.966	465.882	120.773	63.236	91.631	593.964	732.413
0.000	0.000	0.000	527.633	273.819	504.343	410.963	182.221	522.923	334.050	291.550	130.701	261.630	236.413	131.145	204.702	327.097	26.957	465.863	120.794	63.253	91.548	593.989	732.169
0.000	0.000	0.000	527.521	273.667	504.389	410.785	182.089	522.900	334.054	291.551	130.684	261.659	236.381	131.163	204.736	327.104	26.954	465.857	120.815	63.292	91.391	593.978	731.918
0.000	0.000	0.000	527.428	273.545	504.446	410.706	181.967	522.911	334.039	291.578	130.701	261.709	236.424	131.137	204.736	327.125	26.935	465.875	120.818	63.300	91.256	593.929	731.705
0.000	0.000	0.000	527.309	273.430	504.486	410.587	181.825	522.883	334.023	291.555	130.710	261.681	236.434	131.105	204.713	327.128	26.938	465.837	120.781	63.340	91.148	593.910	731.529
0.000	0.000	0.000	527.213	273.311	504.504	410.442	181.716	522.898	334.053	291.578	130.716	261.658	236.477	131.113	204.709	327.138	26.952	465.831	120.839	63.351	90.980	593.903	731.343
0.000	0.000	0.000	527.066	273.212	504.570	410.330	181.640	522.928	334.012	291.568	130.701	261.634	236.504	131.079	204.712	327.159	26.940	465.831	120.804	63.329	90.844	593.900	731.185
0.000	0.000	0.000	526.994	273.110	504.635	410.229	181.510	522.946	334.011	291.575	130.720	261.650	236.522	131.041	204.738	327.150	26.949	465.796	120.826	63.357	90.682	593.893	730.909
0.000	0.000	0.000	526.861	273.013	504.637	410.097	181.435	523.007	334.027	291.567	130.714	261.664	236.540	131.097	204.719	327.165	26.948	465.813	120.815	63.368	90.507	593.824	730.712
0.000	0.000	0.000	526.779	272.956	504.693	410.046	181.322	523.053	334.049	291.573	130.747	261.607	236.545	131.036	204.728	327.158	26.958	465.816	120.840	63.399	90.284	593.759	730.451
0.000	0.000	0.000	526.644	272.927	504.751	409.927	181.240	523.088	334.043	291.586	130.767	261.677	236.506	131.148	204.711	327.137	26.943	465.810	120.840	63.437	90.142	593.747	730.220
0.000	0.000	0.000	526.570	272.871	504.810	409.799	181.235	523.141	334.004	291.605	130.750	261.623	236.547	131.117	204.717	327.152	26.938	465.810	120.837	63.483	89.986	593.690	730.071
0.000	0.000	0.000	526.464	272.834	504.882	409.643	181.197	523.155	334.010	291.645	130.751	261.638	236.606	131.079	204.757	327.147	27.016	465.800	120.857	63.486	89.806	593.618	729.913
0.000	0.000	0.000	526.390	272.810	504.911	409.592	181.155	523.233	333.999	291.659	130.743	261.675	236.569	131.120	204.715	327.159	26.974	465.773	120.852	63.523	89.638	593.582	729.716
0.000	0.000	0.000	526.290	272.776	504.986	409.450	181.131	523.254	334.004	291.663	130.752	261.628	236.677	131.111	204.736	327.192	27.008	465.793	120.889	63.534	89.449	593.475	729.530
0.000	0.000	0.000	526.212	272.762	504.999	409.398	181.115	523.242	334.028	291.682	130.777	261.583	236.751	131.074	204.715	327.200	26.948	465.793	120.886	63.577	89.300	593.450	729.331
0.000	0.000	0.000	526.124	272.756	505.038	409.276	181.074	523.228	334.021	291.681	130.757	261.615	236.763	131.044	204.755	327.209	26.947	465.803	120.875	63.593	89.157	593.388	729.155
0.000	0.000	0.000	526.049	272.747	505.085	409.174	181.105	523.215	334.030	291.726	130.724	261.700	236.735	131.041	204.719	327.192	26.890	465.795	120.884	63.635	89.062	593.366	728.994
0.000	0.000	0.000	525.976	272.735	505.102	409.044	181.057	523.193	334.035	291.774	130.745	261.637	236.760	131.018	204.740	327.202	26.922	465.772	120.843	63.662	88.946	593.340	728.809
0.000	0.000	0.000	525.875	272.736	505.124	408.982	181.060	523.235	334.032	291.780	130.744	261.659	236.782	130.974	204.768	327.225	26.842	465.786	120.920	63.709	88.799	593.265	728.640
0.000	0.000	0.000	525.764	272.747	505.143	408.849	181.066	523.177	334.060	291.807	130.720	261.714	236.809	130.994	204.776	327.233	26.826	465.764	120.907	63.733	88.676	593.222	728.470
0.000	0.000	0.000	525.688	272.733	505.183	408.729	181.082	523.150	334.047	291.828	130.701	261.618	236.927	130.907	204.775	327.249	26.809	465.763	120.951	63.815	88.483	593.180	728.276
0.000	0.000	0.000	525.564	272.784	505.221	408.633	181.087	523.113	334.023	291.873	130.673	261.729	236.888	130.910	204.786	327.265	26.755	465.736	120.955	63.870	88.359	593.150	728.132
754.675	681.198	1009.141	525.472	272.788	505.230	408.478	181.110	523.061	334.038	291.937	130.656	261.656	237.007	130.889	204.770	327.285	26.724	465.755	120.996	63.935	88.147	593.129	727.843
755.340	680.599	1010.167	525.366	272.788	505.220	408.367	181.108	523.035	334.053	291.974	130.641	261.650	237.084	130.798	204.804	327.299	26.706	465.706	121.015	63.980	87.960	593.065	727.681
762.111	676.405	1010.648	525.253	272.796	505.241	408.261	181.074	522.987	334.013	291.994	130.611	261.703	237.032	130.809	204.786	327.280	26.670	465.726	121.034	64.073	87.720	592.982	727.460
760.716	673.735	1006.591	525.161	272.793	505.253	408.216	181.032	522.907	334.062	292.084	130.588	261.766	237.060	130.739	204.765	327.267	26.623	465.730	121.037	64.149	87.544	592.944	727.232
763.797	676.323	1010.096	525.024	272.775	505.268	408.110	180.988	522.892	334.049	292.086	130.574	261.692	237.154	130.696	204.763	327.274	26.579	465.736	121.042	64.171	87.308	592.934	726.970
754.141	677.304	1013.187	524.896	272.784	505.292	407.986	180.960	522.806	334.029	292.136	130.544	261.724	237.166	130.578	204.778	327.284	26.557	465.760	121.062	64.273	87.051	592.844	726.843
754.890	677.946	1013.345	524.772	272.760	505.257	407.772	180.997	522.782	334.027	292.171	130.542	261.574	237.361	130.522	204.786	327.303	26.565	465.738	121.048	64.290	86.875	592.864	726.691
765.130	677.824	1006.950	524.633	272.777	505.368	407.638	181.006	522.727	334.034	292.227	130.530	261.710	237.332	130.576	204.736	327.294	26.545	465.729	121.055	64.395	86.618	592.851	726.513
764.716	675.874	1007.899	524.478	272.755	505.437	407.486	180.992	522.654	334.016	292.252	130.528	261.653	237.378	130.524	204.745	327.325	26.519	465.740	121.054	64.422	86.355	592.815	726.321
765.078	676.403	1007.058	524.328	272.785	505.430	407.327	181.009	522.624	334.016	292.279	130.493	261.667	237.363	130.530	204.744	327.330	26.499	465.732	121.084	64.493	86.131	592.764	726.149
770.189	674.869	1005.639	524.169	272.760	505.530	407.141	181.014	522.568	333.981	292.282	130.483	261.651	237.450	130.503	204.729	327.295	26.461	465.736	121.091	64.513	85.909	592.730	726.006
771.826	674.986	1006.334	523.985	272.768	505.544	407.009	180.956	522.591	333.971	292.304	130.494	261.687	237.405	130.458	204.755	327.286	26.459	465.742	121.113	64.598	85.717	592.694	725.783
0.000	0.000	0.000	523.846	272.729	505.641	406.790	180.958	522.598	333.961	292.335	130.467	261.656	237.400	130.430	204.721	327.282	26.452	465.721	121.116	64.626	85.501	592.663	725.613
0.000	0.000	0.000	523.714	272.738	505.712	406.642	180.900	522.585	333.938	292.351	130.451	261.681	237.412	130.416	204.722	327.278	26.389	465.726	121.154	64.667	85.257	592.655	725.449
0.000	0.000	0.000	523.513	272.707	505.746	406.401	180.880	522.628	333.939	292.376	130.465	261.634	237.468	130.356	204.701	327.304	26.363	465.721	121.165	64.744	85.109	592.682	725.341
0.000	0.000	0.000	523.360	272.692	505.839	406.199	180.888	522.616	333.899	292.385	130.464	261.613	237.558	130.329	204.764	327.357	26.317	465.743	121.184	64.730	84.951	592.692	725.230
0.000	0.000	0.000	523.163	272.655	505.927	406.023	180.854	522.621	333.881	292.400	130.440	261.519	237.642	130.321	204.743	327.362	26.327	465.716	121.175	64.758	84.754	592.707	725.060
0.000	0.000	0.000	522.986	272.626	506.023	405.866	180.790	522.616	333.836	292.434	130.397	261.528	237.589	130.307	204.749	327.369	26.290	465.699	121.223	64.765	84.642	592.727	724.911
0.000	0.000	0.000	522.797	272.584	506.098	405.691	180.730	522.635	333.837	292.446	130.427	261.589	237.570	130.224	204.750	327.355	26.232	465.689	121.200	64.774	84.523	592.770	724.771
0.000	0.000	0.000	522.529	272.540	506.146	405.502	180.648	522.649	333.834	292.460	130.394	261.514	237.613	130.222	204.731	327.325	26.222	465.676	121.194	64.769	84.397	592.746	724.659
0.000	0.000	0.000	522.305	272.467	506.252	405.277	180.604	522.667	333.814	292.458	130.418	261.494	237.655	130.142	204.725	327.333	26.206	465.705	121.212	64.828	84.264	592.757	724.532
0.000	0.000	0.000	522.037	272.421	506.319	405.043	180.580	522.695	333.790	292.460	130.397	261.506	237.642	130.113	204.725	327.333	26.188	465.686	121.259	64.868	84.195	592.809	724.392
0.000	0.000	0.000	521.816	272.345	506.389	404.794	180.517	522.719	333.777	292.507	130.381	261.528	237.678	130.100	204.742	327.348	26.164	465.701	121.255	64.896	84.012	592.753	724.174
0.000	0.000	0.000	521.613	272.290	506.448	404.523	180.453	522.735	333.753	292.531	130.360	261.504	237.677	130.086	204.738	327.374	26.159	465.679	121.261	64.886	83.912	592.789	724.070
0.000	0.000	0.000	521.345	272.202	506.570	404.262	180.395	522.751	333.738	292.529	130.369	261.432	237.743	130.078	204.735	327.390	26.139	465.680	121.298	64.870	83.761	592.792	723.937
0.000	0.000	0.000	521.096	272.098	506.674	403.987	180.335	522.718	333.719	292.552	130.327	261.408	237.768	130.034	204.707	327.366	26.128	465.669	121.297	64.876	83.640	592.794	723.808
0.000	0.000	0.000	520.877	271.975	506.762	403.743	180.191	522.789	333.649	292.563	130.317	261.421	237.725	129.985	204.740	327.395	26.095	465.651	121.315	64.903	83.518	592.759	723.670
0.000	0.000	0.000	520.624	271.828	506.874	403.451	180.100	522.752	333.654	292.553	130.317	261.403	237.684	129.951	204.724	327.363	26.073	465.651	121.311	64.892	83.357	592.674	723.580
0.000	0.000	0.000	520.367	271.657	506.973	403.166	179.944	522.822	333.635	292.529	130.344	261.406	237.651	129.911	204.696	327.342	26.043	465.613	121.327	64.932	83.310	592.684	723.492
0.000	0.000	0.000	520.098	271.478	507.087	402.825	179.841	522.832	333.577	292.545	130.313	261.348	237.677	129.916	204.686	327.312	26.043	465.651	121.275	64.921	83.194	592.610	723.410
0.000	0.000	0.000	519.810	271.280	507.189	402.490	179.694	522.897	333.535	292.525	130.339	261.322	237.660	129.880	204.705	327.310	26.031	465.637	121.281	64.940	83.102	592.558	723.357
0.000	0.000	0.000	519.551	271.109	507.270	402.152	179.555	522.872	333.474	292.506	130.298	261.263	237.652	129.860	204.673	327.336	26.023	465.666	121.299	64.965	83.016	592.531	723.318
0.000	0.000	0.000	519.258	270.910	507.367	401.812	179.403	522.905	333.446	292.514	130.317	261.246	237.594	129.864	204.677	327.344	26.005	465.626	121.290	64.982	82.969	592.505	723.266
0.000	0.000	0.000	519.069	270.732	507.517	401.516	179.292	522.940	333.372	292.468	130.302	261.167	237.636	129.821	204.648	327.322	26.010	465.631	121.289	64.964	82.884	592.454	723.231
0.000	0.000	0.000	518.813	270.585	507.653	401.166	179.187	522.989	333.375	292.436	130.344	261.128	237.554	129.715	204.679	327.337	25.976	465.610	121.292	65.024	82.900	592.449	723.234
0.000	0.000	0.000	518.599	270.361	507.786	400.886	179.035	522.975	333.301	292.404	130.350	261.039	237.531	129.727	204.682	327.316	25.963	465.600	121.288	65.019	82.829	592.395	723.194
0.000	0.000	0.000	518.347	270.174	507.810	400.637	178.883	522.998	333.270	292.382	130.375	261.034	237.506	129.713	204.670	327.309	25.944	465.635	121.306	65.043	82.803	592.327	723.188
0.000	0.000	0.000	518.071	269.922	507.956	400.285	178.736	523.021	333.248	292.367	130.371	261.009	237.420	129.703	204.645	327.269	25.895	465.612	121.312	65.079	82.768	592.304	723.243
0.000	0.000	0.000	517.820	269.701	508.052	400.029	178.541	523.042	333.195	292.343	130.364	260.995	237.351	129.676	204.643	327.308	25.897	465.580	121.295	65.089	82.717	592.251	723.261
0.000	0.000	0.000	517.563	269.460	508.190	399.716	178.374	523.067	333.174	292.310	130.406	260.889	237.402	129.602	204.677	327.338	25.889	465.591	121.325	65.117	82.696	592.228	723.285
0.000	0.000	0.000	517.324	269.259	508.295	399.400	178.188	523.085	333.110	292.304	130.364	260.877	237.372	129.566	204.641	327.333	25.856	465.562	121.325	65.147	82.696	592.224	723.385
0.000	0.000	0.000	517.028	269.028	508.401	399.112	178.042	523.075	333.078	292.253	130.376	260.841	237.351	129.568	204.644	327.335	25.846	465.526	121.328	65.147	82.674	592.249	723.445
0.000	0.000	0.000	516.833	268.844	508.520	398.886	177.850	523.098	333.041	292.280	130.394	260.831	237.346	129.536	204.643	327.355	25.855	465.511	121.327	65.159	82.636	592.206	723.498
0.000	0.000	0.000	516.575	268.625	508.636	398.606	177.711	523.144	333.008	292.247	130.392	260.673	237.407	129.437	204.632	327.325	25.825	465.529	121.319	65.178	82.607	592.155	723.587
0.000	0.000	0.000	516.382	268.412	508.750	398.361	177.552	523.143	332.965	292.241	130.442	260.773	237.260	129.435	204.653	327.339	25.813	465.530	121.316	65.180	82.573	592.127	723.688
0.000	0.000	0.000	516.203	268.195	508.876	398.148	177.369	523.197	332.973	292.189	130.467	260.770	237.226	129.460	204.648	327.330	25.836	465.508	121.318	65.221	82.564	592.098	723.776
0.000	0.000	0.000	516.026	268.017	508.983	397.937	177.243	523.212	332.943	292.182	130.468	260.702	237.195	129.449	204.643	327.312	25.832	465.512	121.312	65.230	82.599	592.097	723.906
0.000	0.000	0.000	515.789	267.835	509.126	397.721	177.085	523.235	332.886	292.117	130.482	260.554	237.261	129.403	204.650	327.322	25.835	465.526	121.318	65.233	82.578	592.089	724.051
0.000	0.000	0.000	515.605	267.619	509.217	397.383	176.985	523.355	332.869	292.114	130.507	260.667	237.170	129.470	204.671	327.353	25.846	465.478	121.287	65.264	82.556	592.064	724.166
0.000	0.000	0.000	515.435	267.439	509.335	397.161	176.872	523.400	332.836	292.105	130.534	260.472	237.325	129.378	204.656	327.375	25.857	465.512	121.333	65.228	82.616	592.091	724.306
0.000	0.000	0.000	515.262	267.294	509.391	396.941	176.688	523.449	332.836	292.058	130.540	260.497	237.188	129.345	204.666	327.368	25.890	465.503	121.359	65.246	82.649	592.097	724.452
0.000	0.000	0.000	515.101	267.117	509.448	396.769	176.506	523.522	332.775	292.040	130.526	260.610	237.065	129.441	204.624	327.349	25.906	465.494	121.319	65.267	82.649	592.041	724.598
0.000	0.000	0.000	514.974	266.969	509.533	396.581	176.379	523.580	332.758	292.029	130.579	260.531	237.132	129.414	204.634	327.299	25.862	465.500	121.310	65.248	82.666	592.002	724.703
0.000	0.000	0.000	514.876	266.837	509.608	396.442	176.251	523.652	332.752	291.992	130.611	260.508	237.055	129.359	204.633	327.306	25.855	465.489	121.309	65.297	82.701	591.959	724.823
0.000	0.000	0.000	514.739	266.725	509.691	396.289	176.149	523.675	332.727	291.911	130.788	260.381	237.091	129.330	204.635	327.304	25.858	465.489	121.279	65.296	82.735	591.923	724.943
0.000	0.000	0.000	514.610	266.590	509.832	396.146	176.045	523.743	332.684	291.964	130.643	260.440	237.035	129.262	204.611	327.303	25.888	465.485	121.347	65.328	82.766	591.942	725.114
0.000	0.000	0.000	514.509	266.499	509.885	396.030	175.989	523.784	332.669	291.840	130.830	260.434	237.020	129.293	204.630	327.312	25.875	465.478	121.358	65.318	82.823	591.905	725.240
0.000	0.000	0.000	514.418	266.358	509.987	395.883	175.903	523.770	332.609	291.844	130.787	260.319	237.065	129.255	204.606	327.325	25.898	465.469	121.416	65.333	82.857	591.903	725.390
0.000	0.000	0.000	514.288	266.257	510.029	395.792	175.830	523.819	332.609	291.856	130.832	260.369	237.014	129.250	204.633	327.348	25.883	465.448	121.342	65.316	82.859	591.795	725.582
0.000	0.000	0.000	514.211	266.153	510.119	395.672	175.718	523.820	332.612	291.784	130.849	260.397	236.920	129.278	204.626	327.323	25.882	465.470	121.396	65.321	82.882	591.737	725.756
0.000	0.000	0.000	514.100	266.007	510.113	395.615	175.600	523.852	332.533	291.753	130.868	260.277	236.954	129.259	204.637	327.287	25.879	465.473	121.409	65.337	82.928	591.684	725.940
0.000	0.000	0.000	514.024	265.877	510.133	395.523	175.513	523.895	332.538	291.728	130.883	260.342	236.805	129.270	204.647	327.297	25.868	465.512	121.348	65.346	82.929	591.597	726.105
0.000	0.000	0.000	513.948	265.775	510.195	395.500	175.423	523.913	332.523	291.716	130.877	260.350	236.766	129.260	204.617	327.246	25.885	465.488	121.363	65.323	83.020	591.561	726.304
0.000	0.000	0.000	513.884	265.650	510.219	395.430	175.332	523.929	332.501	291.678	130.899	260.291	236.806	129.199	204.639	327.287	25.892	465.519	121.380	65.317	83.051	591.495	726.418
0.000	0.000	0.000	513.855	265.564	510.267	395.368	175.248	523.921	332.495	291.677	130.928	260.401	236.675	129.265	204.623	327.272	25.889	465.474	121.331	65.297	83.142	591.484	726.571
0.000	0.000	0.000	513.825	265.409	510.279	395.356	175.134	523.912	332.436	291.583	130.954	260.229	236.769	129.272	204.611	327.289	25.931	465.458	121.321	65.306	83.213	591.473	726.717
0.000	0.000	0.000	513.795	265.332	510.285	395.321	175.034	523.946	332.386	291.558	130.958	260.265	236.687	129.214	204.616	327.281	25.937	465.498	121.369	65.287	83.329	591.430	727.001
0.000	0.000	0.000	513.793	265.208	510.315	395.302	174.954	523.945	332.440	291.539	130.994	260.307	236.680	129.241	204.635	327.326	25.951	465.498	121.324	65.250	83.348	591.344	727.150
0.000	0.000	0.000	513.740	265.113	510.294	395.299	174.817	523.928	332.415	291.535	130.981	260.282	236.644	129.236	204.635	327.295	25.941	465.540	121.349	65.237	83.445	591.322	727.265
0.000	0.000	0.000	513.750	265.030	510.261	395.292	174.762	523.932	332.379	291.501	130.978	260.313	236.639	129.234	204.634	327.280	25.943	465.489	121.284	65.233	83.490	591.288	727.406
0.000	0.000	0.000	513.803	264.910	510.295	395.324	174.624	523.923	332.422	291.477	131.001	260.308	236.541	129.183	204.634	327.260	25.967	465.545	121.284	65.226	83.548	591.237	727.552
0.000	0.000	0.000	513.798	264.835	510.282	395.303	174.551	523.920	332.415	291.481	131.006	260.352	236.556	129.248	204.660	327.273	26.004	465.526	121.262	65.202	83.590	591.226	727.712
0.000	0.000	0.000	513.848	264.714	510.334	395.373	174.481	523.893	332.420	291.434	131.033	260.344	236.545	129.218	204.626	327.263	26.029	465.557	121.303	65.197	83.626	591.148	727.863
0.000	0.000	0.000	513.895	264.616	510.339	395.415	174.425	523.887	332.414	291.421	131.048	260.314	236.566	129.240	204.644	327.304	26.012	465.546	121.311	65.135	83.656	591.120	728.002
0.000	0.000	0.000	513.956	264.545	510.302	395.439	174.379	523.854	332.435	291.403	131.074	260.367	236.504	129.248	204.650	327.318	26.063	465.549	121.262	65.165	83.670	591.064	728.160
0.000	0.000	0.000	514.011	264.474	510.334	395.543	174.270	523.847	332.423	291.371	131.083	260.374	236.512	129.265	204.671	327.276	26.092	465.553	121.268	65.140	83.670	590.987	728.329
0.000	0.000	0.000	514.093	264.402	510.341	395.575	174.213	523.863	332.441	291.356	131.080	260.399	236.472	129.329	204.638	327.273	26.110	465.586	121.213	65.104	83.707	590.943	728.496
0.000	0.000	0.000	514.137	264.344	510.293	395.691	174.124	523.855	332.482	291.370	131.128	260.343	236.445	129.284	204.698	327.256	26.129	465.552	121.221	65.127	83.747	590.838	728.617
0.000	0.000	0.000	514.219	264.320	510.293	395.776	174.088	523.859	332.491	291.330	131.150	260.442	236.419	129.318	204.673	327.227	26.137	465.580	121.202	65.110	83.789	590.780	728.788
0.000	0.000	0.000	514.299	264.280	510.266	395.911	174.060	523.804	332.501	291.335	131.139	260.469	236.329	129.343	204.664	327.237	26.140	465.619	121.223	65.081	83.862	590.741	728.920
0.000	0.000	0.000	514.391	264.276	510.223	396.005	174.037	523.808	332.523	291.333	131.145	260.453	236.443	129.320	204.681	327.263	26.171	465.599	121.215	65.036	83.912	590.679	729.056
0.000	0.000	0.000	514.500	264.278	510.190	396.108	174.038	523.783	332.516	291.329	131.159	260.493	236.418	129.349	204.669	327.247	26.193	465.592	121.283	65.072	83.975	590.623	729.208
0.000	0.000	0.000	514.595	264.280	510.150	396.241	174.018	523.730	332.556	291.315	131.151	260.517	236.406	129.388	204.688	327.295	26.206	465.624	121.272	65.059	84.044	590.550	729.354
0.000	0.000	0.000	514.699	264.276	510.028	396.369	174.046	523.708	332.555	291.309	131.143	260.526	236.398	129.364	204.669	327.244	26.220	465.604	121.250	65.015	84.077	590.470	729.494
0.000	0.000	0.000	514.833	264.302	510.002	396.595	174.030	523.667	332.568	291.314	131.176	260.567	236.352	129.387	204.705	327.250	26.241	465.622	121.239	64.947	84.108	590.330	729.699
0.000	0.000	0.000	514.954	264.334	509.965	396.751	174.051	523.620	332.601	291.310	131.161	260.611	236.305	129.500	204.712	327.282	26.201	465.635	121.227	64.991	84.171	590.214	729.913
0.000	0.000	0.000	515.064	264.382	509.911	396.999	174.037	523.558	332.605	291.327	131.151	260.568	236.359	129.417	204.661	327.210	26.250	465.692	121.207	64.935	84.236	590.090	730.185
0.000	0.000	0.000	515.171	264.432	509.858	397.189	174.050	523.525	332.654	291.314	131.162	260.511	236.369	129.403	204.675	327.228	26.253	465.685	121.214	64.916	84.267	589.969	730.370
0.000	0.000	0.000	515.285	264.515	509.839	397.389	174.135	523.483	332.631	291.318	131.117	260.586	236.399	129.484	204.661	327.228	26.241	465.677	121.239	64.893	84.276	589.882	730.579
0.000	0.000	0.000	515.442	264.609	509.742	397.542	174.196	523.491	332.642	291.323	131.135	260.613	236.386	129.465	204.660	327.246	26.250	465.688	121.224	64.904	84.311	589.837	730.696
0.000	0.000	0.000	515.597	264.714	509.677	397.712	174.300	523.461	332.668	291.338	131.146	260.542	236.411	129.435	204.644	327.251	26.294	465.714	121.262	64.839	84.368	589.779	730.893
0.000	0.000	0.000	515.758	264.840	509.612	397.885	174.390	523.449	332.669	291.304	131.114	260.623	236.350	129.500	204.639	327.229	26.282	465.707	121.257	64.821	84.409	589.716	731.034
0.000	0.000	0.000	515.918	264.982	509.533	398.099	174.495	523.449	332.690	291.319	131.115	260.649	236.321	129.447	204.620	327.205	26.282	465.699	121.214	64.788	84.422	589.653	731.141
0.000	0.000	0.000	516.100	265.108	509.450	398.306	174.570	523.447	332.734	291.299	131.141	260.754	236.236	129.464	204.621	327.192	26.299	465.715	121.207	64.788	84.470	589.575	731.289
0.000	0.000	0.000	516.254	265.286	509.399	398.524	174.681	523.438	332.744	291.321	131.119	260.688	236.361	129.464	204.655	327.172	26.318	465.735	121.210	64.750	84.511	589.519	731.402
0.000	0.000	0.000	516.403	265.471	509.321	398.773	174.756	523.428	332.781	291.328	131.120	260.718	236.310	129.453	204.627	327.159	26.329	465.768	121.178	64.752	84.562	589.498	731.577
0.000	0.000	0.000	516.567	265.650	509.246	398.948	174.895	523.396	332.774	291.377	131.116	260.824	236.289	129.564	204.626	327.179	26.342	465.754	121.227	64.713	84.592	589.427	731.729
0.000	0.000	0.000	516.731	265.869	509.203	399.159	175.026	523.377	332.819	291.364	131.096	260.746	236.367	129.469	204.614	327.175	26.341	465.782	121.221	64.689	84.578	589.393	731.933
0.000	0.000	0.000	516.893	266.020	509.125	399.383	175.180	523.378	332.833	291.406	131.072	260.803	236.325	129.556	204.623	327.172	26.363	465.787	121.271	64.676	84.593	589.354	732.133
0.000	0.000	0.000	517.044	266.221	509.006	399.585	175.346	523.366	332.869	291.433	131.066	260.810	236.347	129.648	204.640	327.191	26.356	465.795	121.220	64.695	84.589	589.247	732.375
0.000	0.000	0.000	517.220	266.436	508.966	399.771	175.519	523.380	332.887	291.448	131.048	260.826	236.409	129.591	204.628	327.139	26.356	465.796	121.225	64.688	84.615	589.157	732.583
0.000	0.000	0.000	517.384	266.656	508.890	400.016	175.729	523.370	332.891	291.463	131.024	260.875	236.373	129.581	204.603	327.142	26.368	465.842	121.273	64.670	84.645	589.103	732.812
0.000	0.000	0.000	517.537	266.940	508.819	400.291	175.893	523.327	332.903	291.521	131.023	260.896	236.386	129.630	204.617	327.130	26.365	465.809	121.249	64.676	84.749	589.113	733.069
0.000	0.000	0.000	517.710	267.211	508.748	400.510	176.095	523.367	332.967	291.558	130.994	261.001	236.364	129.723	204.616	327.116	26.363	465.829	121.247	64.665	84.807	589.087	733.297
0.000	0.000	0.000	517.869	267.461	508.676	400.846	176.282	523.320	332.973	291.557	130.999	260.877	236.455	129.642	204.615	327.123	26.379	465.822	121.274	64.677	84.845	589.079	733.481
0.000	0.000	0.000	518.020	267.722	508.602	401.005	176.476	523.276	332.985	291.583	130.972	260.951	236.437	129.688	204.587	327.124	26.384	465.820	121.297	64.640	84.873	589.082	733.638
0.000	0.000	0.000	518.186	267.986	508.465	401.265	176.628	523.272	332.994	291.627	130.953	260.994	236.498	129.760	204.607	327.133	26.370	465.817	121.297	64.642	84.944	589.082	733.839
0.000	0.000	0.000	518.312	268.233	508.358	401.475	176.812	523.219	332.977	291.656	130.930	260.960	236.544	129.748	204.653	327.171	26.362	465.840	121.292	64.657	84.958	589.091	734.007
0.000	0.000	0.000	518.433	268.475	508.318	401.684	176.970	523.254	333.007	291.688	130.957	260.933	236.605	129.696	204.608	327.129	26.397	465.868	121.367	64.629	84.950	589.073	734.157
0.000	0.000	0.000	518.522	268.697	508.226	401.931	177.155	523.236	333.011	291.725	130.919	260.957	236.566	129.722	204.573	327.125	26.365	465.863	121.353	64.665	84.915	589.018	734.351
0.000	0.000	0.000	518.633	268.978	508.173	402.159	177.373	523.218	333.032	291.729	130.909	260.996	236.579	129.825	204.562	327.114	26.319	465.859	121.367	64.623	84.927	588.993	734.564
0.000	0.000	0.000	518.772	269.249	508.131	402.359	177.547	523.234	333.046	291.796	130.921	261.009	236.597	129.764	204.586	327.111	26.330	465.834	121.309	64.619	84.951	588.990	734.722
0.000	0.000	0.000	518.910	269.517	508.068	402.533	177.769	523.236	333.052	291.793	130.908	261.036	236.556	129.736	204.587	327.090	26.356	465.823	121.348	64.638	84.969	588.983	734.924
0.000	0.000	0.000	519.032	269.762	507.991	402.713	177.976	523.249	333.055	291.807	130.874	260.999	236.678	129.865	204.563	327.099	26.347	465.833	121.393	64.663	84.976	588.993	735.125
0.000	0.000	0.000	519.140	270.045	507.975	402.881	178.154	523.274	333.054	291.834	130.899	261.035	236.648	129.849	204.537	327.123	26.331	465.826	121.437	64.653	85.004	589.033	735.276
0.000	0.000	0.000	519.256	270.243	507.959	403.056	178.337	523.304	333.046	291.826	130.860	261.074	236.702	129.871	204.543	327.118	26.334	465.822	121.456	64.676	85.047	589.061	735.426
0.000	0.000	0.000	519.332	270.426	507.848	403.206	178.478	523.306	333.055	291.877	130.879	260.970	236.745	129.816	204.549	327.123	26.341	465.828	121.461	64.649	85.112	589.093	735.589
0.000	0.000	0.000	519.382	270.668	507.758	403.390	178.581	523.346	333.049	291.846	130.881	261.047	236.663	129.827	204.538	327.066	26.351	465.827	121.411	64.654	85.123	589.090	735.668
0.000	0.000	0.000	519.506	270.847	507.702	403.548	178.727	523.359	333.069	291.855	130.875	261.089	236.573	129.880	204.549	327.053	26.344	465.853	121.445	64.628	85.172	589.064	735.844
0.000	0.000	0.000	519.518	271.068	507.596	403.685	178.882	523.390	333.059	291.862	130.874	261.078	236.596	129.966	204.516	327.022	26.354	465.851	121.446	64.653	85.217	589.090	735.946
0.000	0.000	0.000	519.628	271.270	507.537	403.854	179.037	523.369	333.090	291.864	130.881	261.125	236.563	129.968	204.522	327.023	26.351	465.832	121.375	64.667	85.271	589.142	736.118
0.000	0.000	0.000	519.717	271.458	507.557	403.993	179.214	523.374	333.104	291.938	130.705	261.080	236.642	129.934	204.531	327.054	26.357	465.858	121.402	64.645	85.318	589.182	736.235
0.000	0.000	0.000	519.779	271.655	507.485	404.061	179.403	523.401	333.072	291.843	130.852	261.057	236.624	129.986	204.521	327.075	26.345	465.857	121.405	64.607	85.394	589.208	736.476
0.000	0.000	0.000	519.875	271.819	507.426	404.130	179.576	523.398	333.072	291.880	130.867	261.016	236.656	129.939	204.516	327.062	26.365	465.865	121.417	64.615	85.430	589.244	736.506
0.000	0.000	0.000	519.975	271.976	507.373	404.310	179.707	523.330	333.086	291.866	130.872	261.129	236.579	130.067	204.512	327.074	26.330	465.834	121.456	64.619	85.505	589.300	736.600
0.000	0.000	0.000	520.054	272.112	507.344	404.418	179.815	523.358	333.094	291.947	130.700	260.986	236.644	129.984	204.539	327.062	26.351	465.839	121.409	64.589	85.517	589.304	736.649
0.000	0.000	0.000	520.089	272.266	507.279	404.494	179.938	523.398	333.100	291.949	130.699	260.995	236.635	129.911	204.508	327.025	26.349	465.837	121.412	64.585	85.595	589.324	736.683
0.000	0.000	0.000	520.192	272.377	507.247	404.521	180.086	523.420	333.079	291.955	130.667	261.040	236.651	129.918	204.502	327.014	26.298	465.841	121.370	64.560	85.636	589.364	736.717
0.000	0.000	0.000	520.220	272.506	507.181	404.617	180.182	523.382	333.102	291.951	130.689	261.042	236.632	129.958	204.494	327.023	26.328	465.855	121.368	64.568	85.649	589.357	736.746
0.000	0.000	0.000	520.269	272.612	507.141	404.656	180.306	523.380	333.092	291.978	130.678	260.960	236.672	129.891	204.512	327.019	26.331	465.849	121.398	64.567	85.663	589.424	736.772
0.000	0.000	0.000	520.319	272.691	507.071	404.706	180.417	523.386	333.068	291.987	130.695	260.970	236.724	129.951	204.502	327.053	26.314	465.810	121.473	64.549	85.712	589.468	736.762
0.000	0.000	0.000	520.375	272.822	507.030	404.681	180.527	523.392	333.040	291.977	130.677	260.911	236.711	129.901	204.477	327.041	26.304	465.806	121.444	64.524	85.746	589.535	736.784
0.000	0.000	0.000	520.380	272.877	506.941	404.687	180.624	523.403	333.051	291.928	130.664	260.872	236.801	129.915	204.490	327.087	26.284	465.784	121.380	64.538	85.803	589.609	736.742
0.000	0.000	0.000	520.479	272.994	506.889	404.803	180.691	523.420	333.022	291.876	130.830	260.974	236.695	129.947	204.461	327.043	26.277	465.810	121.437	64.526	85.838	589.659	736.698
0.000	0.000	0.000	520.524	273.058	506.846	404.832	180.758	523.415	333.033	291.839	130.825	260.978	236.665	129.969	204.462	327.010	26.250	465.826	121.395	64.536	85.828	589.653	736.633
0.000	0.000	0.000	520.584	273.193	506.774	404.900	180.820	523.434	333.034	291.857	130.804	260.951	236.643	129.959	204.487	327.014	26.249	465.802	121.402	64.517	85.885	589.769	736.549
0.000	0.000	0.000	520.623	273.259	506.731	404.970	180.935	523.439	333.053	291.953	130.635	260.958	236.661	129.854	204.484	326.998	26.251	465.793	121.344	64.567	85.886	589.851	736.433
0.000	0.000	0.000	520.695	273.391	506.669	404.989	181.063	523.423	333.049	291.942	130.625	260.940	236.699	129.987	204.477	327.017	26.248	465.794	121.384	64.569	85.889	589.970	736.327
0.000	0.000	0.000	520.720	273.460	506.616	405.078	181.143	523.422	333.036	291.965	130.623	260.906	236.705	129.901	204.442	326.994	26.260	465.774	121.445	64.565	85.880	590.037	736.285
0.000	0.000	0.000	520.813	273.579	506.597	405.133	181.237	523.428	333.040	291.970	130.607	260.887	236.739	129.927	204.470	327.013	26.267	465.744	121.425	64.552	85.848	590.181	736.153
0.000	0.000	0.000	520.884	273.670	506.506	405.205	181.333	523.411	333.058	291.978	130.639	260.884	236.688	129.939	204.473	327.030	26.270	465.771	121.384	64.553	85.900	590.308	735.966
0.000	0.000	0.000	520.922	273.745	506.471	405.231	181.409	523.407	333.060	291.975	130.619	260.892	236.725	129.933	204.479	327.016	26.267	465.759	121.440	64.562	85.934	590.422	735.842
0.000	0.000	0.000	520.994	273.831	506.439	405.288	181.475	523.425	333.080	291.961	130.595	260.955	236.697	129.997	204.478	326.982	26.248	465.792	121.375	64.540	86.007	590.563	735.713
0.000	0.000	0.000	521.044	273.910	506.366	405.390	181.542	523.411	333.079	292.006	130.627	260.944	236.677	129.996	204.495	327.015	26.232	465.754	121.355	64.544	86.047	590.669	735.557
0.000	0.000	0.000	521.121	274.001	506.330	405.416	181.655	523.407	333.065	292.004	130.626	260.862	236.707	129.931	204.484	327.010	26.222	465.783	121.346	64.534	86.099	590.829	735.442
0.000	0.000	0.000	521.162	274.075	506.267	405.486	181.757	523.386	333.055	291.980	130.593	260.914	236.749	129.942	204.446	326.995	26.241	465.754	121.356	64.521	86.114	590.921	735.308
0.000	0.000	0.000	521.239	274.168	506.235	405.540	181.822	523.438	333.053	291.978	130.589	260.944	236.723	130.003	204.478	327.013	26.243	465.761	121.375	64.522	86.120	591.070	735.189
0.000	0.000	0.000	521.374	274.265	506.177	405.544	181.997	523.375	333.086	292.008	130.596	260.847	236.817	130.001	204.449	327.021	26.240	465.717	121.426	64.501	86.155	591.207	735.032
0.000	0.000	0.000	521.477	274.386	506.098	405.621	182.091	523.353	333.106	291.984	130.605	260.915	236.811	129.974	204.443	327.015	26.234	465.769	121.406	64.517	86.166	591.280	734.903
0.000	0.000	0.000	521.587	274.502	506.046	405.713	182.159	523.355	333.089	291.994	130.562	260.848	236.836	129.912	204.463	327.024	26.220	465.759	121.357	64.506	86.203	591.389	734.761
0.000	0.000	0.000	521.640	274.573	506.044	405.815	182.244	523.347	333.088	291.995	130.523	260.932	236.757	129.982	204.471	327.012	26.217	465.780	121.391	64.479	86.238	591.479	734.637
0.000	0.000	0.000	521.728	274.667	505.989	405.871	182.351	523.330	333.106	292.017	130.526	260.936	236.774	129.989	204.507	327.013	26.207	465.774	121.399	64.455	86.294	591.600	734.406
0.000	0.000	0.000	521.826	274.746	505.943	405.939	182.411	523.286	333.117	292.006	130.499	260.975	236.746	129.961	204.467	327.003	26.209	465.795	121.388	64.436	86.382	591.743	734.198
0.000	0.000	0.000	521.873	274.824	505.898	406.014	182.527	523.240	333.131	292.033	130.472	260.935	236.855	129.951	204.462	326.999	26.176	465.772	121.362	64.423	86.454	591.899	734.003
0.000	0.000	0.000	521.981	274.903	505.847	406.149	182.595	523.235	333.140	292.028	130.457	260.892	236.915	129.921	204.477	327.013	26.189	465.763	121.340	64.414	86.500	592.044	733.813
0.000	0.000	0.000	522.089	275.024	505.793	406.200	182.720	523.174	333.156	292.022	130.450	260.886	236.891	129.883	204.464	327.022	26.188	465.756	121.344	64.382	86.527	592.126	733.673
0.000	0.000	0.000	522.201	275.130	505.725	406.326	182.814	523.154	333.164	292.032	130.424	260.841	236.957	129.854	204.474	327.023	26.176	465.762	121.363	64.375	86.538	592.257	733.517
0.000	0.000	0.000	522.345	275.278	505.697	406.452	182.937	523.104	333.191	292.059	130.412	260.932	236.909	129.912	204.463	327.046	26.193	465.761	121.369	64.365	86.545	592.325	733.334
0.000	0.000	0.000	522.497	275.417	505.692	406.596	182.998	523.116	333.210	292.041	130.385	260.987	236.903	129.898	204.463	326.981	26.208	465.767	121.309	64.388	86.593	592.425	733.220
0.000	0.000	0.000	522.633	275.511	505.584	406.709	183.103	523.098	333.244	292.060	130.407	260.996	236.864	129.896	204.467	327.009	26.210	465.785	121.337	64.379	86.605	592.509	733.070
0.000	0.000	0.000	522.742	275.652	505.595	406.845	183.234	523.099	333.268	292.060	130.397	261.030	236.866	129.999	204.475	326.975	26.251	465.767	121.267	64.355	86.638	592.556	732.893
0.000	0.000	0.000	522.922	275.773	505.534	406.990	183.346	523.106	333.305	292.064	130.425	261.021	236.886	129.923	204.487	326.989	26.257	465.779	121.315	64.368	86.788	592.713	732.719
0.000	0.000	0.000	523.051	275.908	505.436	407.107	183.461	523.100	333.310	292.082	130.397	261.088	236.849	130.075	204.501	326.991	26.277	465.775	121.294	64.368	86.866	592.873	732.554
0.000	0.000	0.000	523.209	276.043	505.397	407.252	183.551	523.116	333.321	292.105	130.417	260.993	236.998	129.987	204.459	327.010	26.309	465.770	121.298	64.371	86.924	593.030	732.380
0.000	0.000	0.000	523.263	276.159	505.310	407.368	183.669	523.142	333.344	292.078	130.383	261.044	236.963	130.008	204.508	327.018	26.313	465.781	121.276	64.353	86.976	593.158	732.198
0.000	0.000	0.000	523.462	276.270	505.228	407.536	183.732	523.135	333.368	292.094	130.415	261.063	236.971	130.075	204.476	327.034	26.305	465.810	121.300	64.310	86.999	593.262	732.083
0.000	0.000	0.000	523.532	276.345	505.150	407.625	183.814	523.118	333.427	292.113	130.411	261.096	236.924	130.106	204.513	327.012	26.330	465.790	121.261	64.324	87.076	593.415	731.947
0.000	0.000	0.000	523.682	276.460	505.063	407.784	183.916	523.130	333.438	292.100	130.411	261.166	236.926	130.163	204.492	327.001	26.346	465.798	121.229	64.271	87.103	593.518	731.751
0.000	0.000	0.000	523.802	276.574	504.938	407.967	184.012	523.135	333.444	292.130	130.388	261.051	237.038	130.041	204.521	327.039	26.310	465.810	121.262	64.284	87.177	593.647	731.638
0.000	0.000	0.000	523.942	276.674	504.861	408.101	184.091	523.140	333.475	292.153	130.376	261.160	236.976	130.164	204.527	326.991	26.303	465.812	121.258	64.256	87.306	593.791	731.516
0.000	0.000	0.000	524.110	276.778	504.768	408.231	184.168	523.106	333.475	292.149	130.349	261.133	237.027	130.160	204.516	327.019	26.312	465.801	121.265	64.259	87.451	594.019	731.359
0.000	0.000	0.000	524.265	276.880	504.724	408.329	184.303	523.074	333.497	292.151	130.335	261.223	237.018	130.117	204.501	327.041	26.309	465.778	121.236	64.243	87.574	594.206	731.162
0.000	0.000	0.000	524.427	277.002	504.669	408.491	184.366	523.035	333.486	292.160	130.302	261.164	237.093	130.175	204.501	327.041	26.316	465.798	121.293	64.269	87.746	594.454	731.023
0.000	0.000	0.000	524.571	277.104	504.595	408.583	184.467	523.005	333.554	292.189	130.322	261.193	237.087	130.163	204.505	327.064	26.317	465.788	121.276	64.232	87.856	594.581	730.899
0.000	0.000	0.000	524.731	277.165	504.505	408.781	184.512	522.977	333.545	292.194	130.299	261.259	237.049	130.217	204.489	327.033	26.308	465.777	121.258	64.229	87.992	594.689	730.819
0.000	0.000	0.000	524.866	277.236	504.492	408.942	184.542	522.962	333.568	292.233	130.297	261.280	237.036	130.229	204.507	327.008	26.317	465.765	121.273	64.201	88.120	594.810	730.783
0.000	0.000	0.000	525.024	277.291	504.430	409.065	184.649	522.955	333.624	292.232	130.313	261.327	237.051	130.261	204.474	326.999	26.316	465.809	121.258	64.195	88.234	594.850	730.700
0.000	0.000	0.000	525.198	277.376	504.413	409.269	184.683	522.933	333.631	292.227	130.290	261.326	237.079	130.204	204.515	326.987	26.345	465.783	121.245	64.180	88.385	594.957	730.680
0.000	0.000	0.000	525.365	277.439	504.386	409.390	184.769	522.930	333.647	292.241	130.319	261.355	237.053	130.287	204.502	327.031	26.339	465.800	121.254	64.182	88.536	595.067	730.671
0.000	0.000	0.000	525.516	277.529	504.348	409.584	184.806	522.946	333.693	292.257	130.296	261.310	237.129	130.293	204.506	327.035	26.387	465.785	121.274	64.171	88.705	595.188	730.676
0.000	0.000	0.000	525.670	277.589	504.290	409.680	184.905	522.884	333.701	292.233	130.301	261.282	237.138	130.294	204.489	327.047	26.378	465.772	121.197	64.181	88.847	595.259	730.694
0.000	0.000	0.000	525.862	277.666	504.218	409.916	184.954	522.876	333.723	292.263	130.283	261.417	237.098	130.336	204.490	327.051	26.380	465.780	121.243	64.138	88.962	595.326	730.694
0.000	0.000	0.000	526.016	277.728	504.151	410.081	184.974	522.840	333.738	292.257	130.288	261.349	237.126	130.358	204.516	327.031	26.422	465.789	121.246	64.136	89.086	595.377	730.682
0.000	0.000	0.000	526.183	277.778	504.080	410.250	185.059	522.821	333.770	292.281	130.254	261.322	237.153	130.306	204.541	327.007	26.414	465.837	121.244	64.129	89.260	595.442	730.682
0.000	0.000	0.000	526.334	277.838	504.048	410.420	185.085	522.760	333.793	292.298	130.263	261.476	237.112	130.361	204.548	327.024	26.411	465.813	121.252	64.108	89.373	595.458	730.683
0.000	0.000	0.000	526.455	277.918	503.964	410.627	185.144	522.646	333.811	292.323	130.280	261.445	237.070	130.469	204.523	327.002	26.406	465.828	121.237	64.125	89.504	595.523	730.719
0.000	0.000	0.000	526.598	277.948	503.911	410.726	185.213	522.627	333.841	292.352	130.266	261.444	237.137	130.453	204.514	326.996	26.403	465.844	121.199	64.095	89.588	595.556	730.699
0.000	0.000	0.000	526.698	277.997	503.824	410.841	185.284	522.610	333.870	292.349	130.279	261.453	237.181	130.435	204.510	327.070	26.428	465.848	121.243	64.085	89.730	595.640	730.706
0.000	0.000	0.000	526.812	278.030	503.761	410.977	185.315	522.519	333.894	292.357	130.247	261.450	237.211	130.426	204.541	327.044	26.400	465.862	121.218	64.061	89.840	595.651	730.698
0.000	0.000	0.000	526.956	278.089	503.701	411.126	185.363	522.539	333.887	292.375	130.235	261.498	237.186	130.434	204.545	327.044	26.434	465.867	121.202	64.037	89.892	595.677	730.680
0.000	0.000	0.000	527.074	278.124	503.633	411.208	185.425	522.474	333.896	292.379	130.221	261.531	237.200	130.467	204.528	327.035	26.418	465.861	121.214	64.016	89.984	595.661	730.711
0.000	0.000	0.000	527.183	278.200	503.560	411.340	185.488	522.470	333.928	292.340	130.229	261.546	237.191	130.386	204.501	327.023	26.413	465.853	121.177	64.027	90.030	595.620	730.723
0.000	0.000	0.000	527.241	278.263	503.551	411.474	185.518	522.442	333.927	292.388	130.187	261.603	237.147	130.379	204.539	327.013	26.384	465.871	121.203	63.997	90.093	595.579	730.745
0.000	0.000	0.000	527.370	278.322	503.497	411.606	185.555	522.406	333.944	292.414	130.187	261.507	237.223	130.464	204.553	327.010	26.426	465.862	121.208	64.004	90.152	595.564	730.748
0.000	0.000	0.000	527.467	278.371	503.487	411.766	185.603	522.432	333.953	292.403	130.192	261.488	237.255	130.403	204.522	327.022	26.413	465.849	121.162	63.998	90.160	595.479	730.818
0.000	0.000	0.000	527.548	278.419	503.441	411.822	185.669	522.358	333.958	292.418	130.159	261.522	237.275	130.533	204.545	327.022	26.442	465.865	121.197	63.969	90.208	595.441	730.851
0.000	0.000	0.000	527.634	278.463	503.411	411.925	185.715	522.363	334.001	292.413	130.202	261.615	237.204	130.501	204.547	327.054	26.472	465.855	121.216	63.959	90.219	595.374	730.944
0.000	0.000	0.000	527.783	278.514	503.376	412.004	185.730	522.349	334.001	292.419	130.157	261.545	237.275	130.481	204.498	327.029	26.456	465.851	121.204	63.945	90.303	595.364	731.034
0.000	0.000	0.000	527.869	278.517	503.326	412.134	185.761	522.366	333.980	292.425	130.161	261.587	237.237	130.596	204.526	327.031	26.506	465.862	121.157	63.941	90.372	595.316	731.115
0.000	0.000	0.000	527.959	278.529	503.342	412.271	185.739	522.362	334.026	292.413	130.212	261.599	237.242	130.521	204.521	327.025	26.497	465.874	121.196	63.929	90.467	595.285	731.229
0.000	0.000	0.000	528.075	278.529	503.354	412.311	185.763	522.360	334.054	292.416	130.237	261.594	237.244	130.562	204.527	326.998	26.529	465.861	121.175	63.913	90.605	595.247	731.408
0.000	0.000	0.000	528.171	278.565	503.349	412.466	185.728	522.403	334.053	292.395	130.212	261.697	237.138	130.613	204.547	326.997	26.564	465.855	121.164	63.874	90.725	595.223	731.551
0.000	0.000	0.000	528.256	278.535	503.354	412.530	185.746	522.389	334.093	292.411	130.268	261.595	237.229	130.628	204.555	327.017	26.560	465.891	121.158	63.902	90.825	595.189	731.691
0.000	0.000	0.000	528.351	278.556	503.337	412.592	185.733	522.415	334.089	292.387	130.280	261.676	237.175	130.625	204.574	327.024	26.596	465.873	121.115	63.922	90.914	595.189	731.867
0.000	0.000	0.000	528.445	278.523	503.273	412.680	185.772	522.419	334.092	292.385	130.288	261.599	237.216	130.671	204.540	327.038	26.631	465.883	121.159	63.863	91.042	595.227	732.035
0.000	0.000	0.000	528.548	278.561	503.296	412.794	185.763	522.437	334.134	292.356	130.306	261.604	237.210	130.754	204.517	327.012	26.685	465.874	121.154	63.891	91.175	595.260	732.185
0.000	0.000	0.000	528.614	278.558	503.260	412.852	185.774	522.462	334.124	292.330	130.316	261.683	237.162	130.797	204.497	327.007	26.690	465.911	121.177	63.917	91.250	595.289	732.329
0.000	0.000	0.000	528.705	278.525	503.193	412.916	185.782	522.488	334.133	292.333	130.337	261.661	237.153	130.749	204.472	326.965	26.710	465.905	121.174	63.867	91.453	595.343	732.488
0.000	0.000	0.000	528.771	278.534	503.210	412.977	185.764	522.516	334.135	292.333	130.306	261.760	237.057	130.826	204.543	326.988	26.712	465.898	121.139	63.880	91.572	595.375	732.660
0.000	0.000	0.000	528.817	278.519	503.145	413.066	185.759	522.518	334.142	292.326	130.343	261.740	237.105	130.773	204.540	326.980	26.702	465.920	121.128	63.846	91.731	595.405	732.829
0.000	0.000	0.000	528.822	278.528	503.107	413.127	185.740	522.556	334.166	292.313	130.372	261.690	237.100	130.793	204.548	326.987	26.662	465.912	121.135	63.842	91.837	595.452	732.993
0.000	0.000	0.000	528.897	278.523	503.017	413.157	185.782	522.567	334.174	292.306	130.339	261.653	237.130	130.797	204.544	326.976	26.714	465.901	121.139	63.866	91.949	595.473	733.211
0.000	0.000	0.000	528.940	278.504	502.990	413.202	185.811	522.575	334.150	292.342	130.322	261.669	237.153	130.748	204.566	327.030	26.674	465.882	121.120	63.857	92.026	595.496	733.364
0.000	0.000	0.000	528.974	278.501	502.915	413.268	185.817	522.610	334.151	292.334	130.319	261.680	237.126	130.771	204.540	327.008	26.697	465.886	121.154	63.841	92.129	595.546	733.544
0.000	0.000	0.000	529.044	278.462	502.884	413.314	185.848	522.624	334.142	292.319	130.291	261.632	237.175	130.755	204.505	327.014	26.720	465.890	121.144	63.819	92.272	595.563	733.724
0.000	0.000	0.000	529.047	278.475	502.815	413.337	185.863	522.671	334.110	292.301	130.314	261.720	237.105	130.801	204.530	326.979	26.701	465.856	121.111	63.833	92.402	595.559	733.948
0.000	0.000	0.000	529.100	278.478	502.812	413.454	185.865	522.688	334.160	292.290	130.329	261.714	237.069	130.822	204.502	326.975	26.712	465.897	121.120	63.824	92.500	595.545	734.179
0.000	0.000	0.000	529.168	278.505	502.776	413.467	185.933	522.721	334.156	292.295	130.345	261.688	237.053	130.799	204.527	326.970	26.704	465.899	121.152	63.833	92.618	595.503	734.339
0.000	0.000	0.000	529.195	278.474	502.766	413.549	185.937	522.760	334.126	292.284	130.332	261.703	237.054	130.841	204.544	326.966	26.696	465.920	121.134	63.826	92.721	595.506	734.494
0.000	0.000	0.000	529.245	278.470	502.693	413.593	185.929	522.823	334.132	292.274	130.355	261.695	237.005	130.850	204.501	326.946	26.722	465.888	121.178	63.819	92.801	595.471	734.623
0.000	0.000	0.000	529.302	278.432	502.737	413.648	185.979	522.820	334.122	292.259	130.374	261.683	237.010	130.861	204.557	326.987	26.737	465.874	121.165	63.830	92.938	595.487	734.775
0.000	0.000	0.000	529.345	278.411	502.696	413.664	185.976	522.874	334.134	292.251	130.372	261.658	237.044	130.874	204.509	326.989	26.743	465.872	121.170	63.835	93.054	595.518	734.914
0.000	0.000	0.000	529.355	278.390	502.627	413.705	185.967	522.888	334.130	292.276	130.369	261.651	237.041	130.856	204.526	326.991	26.755	465.900	121.158	63.822	93.194	595.546	735.045
0.000	0.000	0.000	529.412	278.359	502.621	413.750	185.955	522.883	334.135	292.277	130.365	261.665	236.991	130.848	204.530	327.010	26.718	465.880	121.162	63.800	93.296	595.523	735.136
0.000	0.000	0.000	529.477	278.331	502.584	413.776	185.945	522.924	334.101	292.231	130.358	261.708	236.918	130.879	204.513	326.974	26.727	465.875	121.084	63.819	93.412	595.520	735.252
0.000	0.000	0.000	529.530	278.260	502.556	413.857	185.897	522.935	334.126	292.216	130.409	261.697	236.895	130.893	204.507	326.945	26.755	465.902	121.068	63.814	93.505	595.473	735.365
0.000	0.000	0.000	529.567	278.248	502.556	413.925	185.871	522.940	334.123	292.215	130.416	261.644	236.951	130.882	204.501	326.931	26.737	465.893	121.124	63.776	93.642	595.510	735.446
0.000	0.000	0.000	529.606	278.190	502.513	413.928	185.870	522.970	334.122	292.237	130.397	261.672	236.897	130.945	204.516	326.923	26.757	465.923	121.127	63.810	93.755	595.528	735.497
0.000	0.000	0.000	529.653	278.162	502.539	413.972	185.850	522.969	334.112	292.211	130.403	261.747	236.799	130.947	204.524	326.949	26.777	465.926	121.127	63.812	93.870	595.584	735.585
0.000	0.000	0.000	529.657	278.048	502.521	413.937	185.824	522.999	334.083	292.208	130.398	261.703	236.862	131.027	204.506	326.958	26.787	465.895	121.159	63.811	93.968	595.645	735.658
0.000	0.000	0.000	529.687	277.985	502.516	413.944	185.781	523.012	334.090	292.177	130.422	261.675	236.860	130.959	204.507	326.959	26.826	465.931	121.141	63.774	94.095	595.715	735.692
0.000	0.000	0.000	529.683	277.874	502.490	413.967	185.689	523.040	334.101	292.147	130.451	261.646	236.868	130.975	204.500	326.936	26.809	465.916	121.142	63.750	94.225	595.776	735.768
0.000	0.000	0.000	529.677	277.758	502.469	413.962	185.635	523.045	334.125	292.160	130.458	261.728	236.794	130.999	204.522	326.941	26.826	465.919	121.105	63.769	94.376	595.849	735.835
0.000	0.000	0.000	529.667	277.631	502.464	414.000	185.500	523.089	334.121	292.135	130.446	261.689	236.792	131.016	204.497	326.922	26.808	465.917	121.102	63.757	94.453	595.886	735.852
0.000	0.000	0.000	529.660	277.505	502.466	413.936	185.405	523.118	334.128	292.122	130.461	261.669	236.787	130.986	204.547	326.966	26.818	465.910	121.097	63.783	94.610	595.951	735.888
