NO_OF_SAMPLES	4800
FREQUENCY	960
TIME_STAMP	2020-02-08, 11:26:38	226676.59644540
FIRST_SAMPLE	1
DESCRIPTION	Force data in local (force plate) coordinates
DATA_INCLUDED	Force
FORCE_PLATE_TYPE	Amti
FORCE_PLATE_MODEL	Unknown
FORCE_PLATE_NAME	Embedded Force Plate
FORCE_PLATE_CORNER_POSX_POSY_X	0.000000
FORCE_PLATE_CORNER_POSX_POSY_Y	1200.000048
FORCE_PLATE_CORNER_POSX_POSY_Z	0.000000
FORCE_PLATE_CORNER_NEGX_POSY_X	600.000024
FORCE_PLATE_CORNER_NEGX_POSY_Y	1200.000048
FORCE_PLATE_CORNER_NEGX_POSY_Z	0.000000
FORCE_PLATE_CORNER_NEGX_NEGY_X	600.000024
FORCE_PLATE_CORNER_NEGX_NEGY_Y	0.000000
FORCE_PLATE_CORNER_NEGX_NEGY_Z	0.000000
FORCE_PLATE_CORNER_POSX_NEGY_X	0.000000
FORCE_PLATE_CORNER_POSX_NEGY_Y	0.000000
FORCE_PLATE_CORNER_POSX_NEGY_Z	0.000000
FORCE_PLATE_OFFSET_X	-0.787400
FORCE_PLATE_OFFSET_Y	-0.812800
FORCE_PLATE_OFFSET_Z	-56.108600
FORCE_PLATE_LENGTH	1200.150000
FORCE_PLATE_WIDTH	600.202000
Force_X	Force_Y	Force_Z	Moment_X	Moment_Y	Moment_Z	COP_X	COP_Y	COP_Z
9.349270	-7.281382	-52.273498	3.938817	-2.479106	2.156883	-38.177894	-83.978553	0.000000	
12.274435	-7.165699	-49.694037	-0.754070	-3.312651	2.625479	-53.589505	6.270801	0.000000	
8.320560	-7.692762	-53.310955	6.866740	-1.861659	1.816273	-26.950947	-137.714691	0.000000	
-4.392506	-9.939055	-69.690952	30.973597	1.741103	-0.303260	20.659369	-453.256947	0.000000	
10.892253	-7.355303	-51.247299	1.785877	-2.908872	2.211449	-45.623387	-43.714035	0.000000	
-2.884308	-9.660340	-66.927840	27.960588	1.335068	0.023824	16.742433	-426.683658	0.000000	
12.143417	-7.338903	-50.733556	-1.186646	-3.344042	2.550534	-53.271238	14.460531	0.000000	
10.543906	-7.357877	-51.762764	2.258952	-2.635408	2.282395	-40.271463	-52.428904	0.000000	
8.331619	-7.821507	-54.175180	6.090175	-2.197729	1.956214	-32.725522	-121.329783	0.000000	
7.974073	-7.918371	-53.827131	7.555400	-1.980506	1.904590	-29.269161	-149.430952	0.000000	
7.888941	-7.560391	-55.382690	7.081193	-2.223628	1.900634	-32.945288	-136.331607	0.000000	
-7.665083	-10.721305	-73.482473	36.525727	2.487696	-0.775222	27.214087	-506.066407	0.000000	
4.517390	-8.392749	-58.483220	13.883411	-1.048201	1.288504	-14.376541	-246.256138	0.000000	
3.851830	-8.355882	-57.612983	14.529897	-0.805609	1.219401	-11.019263	-261.148801	0.000000	
11.072452	-7.088287	-51.072645	1.484921	-2.759169	2.337655	-42.647566	-37.674696	0.000000	
7.709943	-7.831117	-53.651439	7.469155	-1.891042	1.904961	-27.971166	-148.218876	0.000000	
-4.792340	-10.119286	-71.248262	32.178394	1.898394	-0.431550	22.083375	-460.419425	0.000000	
8.455170	-7.558092	-53.483769	6.565413	-1.923223	1.869537	-27.876269	-131.497070	0.000000	
-8.286335	-10.861590	-74.171908	38.032837	2.705429	-0.883266	29.419372	-521.795293	0.000000	
9.480770	-7.371440	-51.928502	4.283894	-2.477541	2.175922	-38.254067	-91.273632	0.000000	
7.616405	-7.831915	-54.344892	8.028829	-1.796970	1.778502	-25.989846	-156.637315	0.000000	
11.378901	-7.175062	-49.864064	0.796547	-3.034587	2.321721	-48.840692	-24.860775	0.000000	
5.756019	-8.203813	-56.066578	11.171337	-1.422505	1.471456	-20.398787	-208.274042	0.000000	
5.493827	-8.428212	-56.757655	11.988834	-1.267861	1.488185	-17.694539	-220.373130	0.000000	
7.874780	-7.697153	-53.655235	7.598951	-1.858835	1.690405	-27.196612	-150.487428	0.000000	
5.135156	-8.387209	-56.410051	12.290520	-1.176529	1.363815	-16.536411	-227.033388	0.000000	
9.433240	-7.724519	-52.277869	4.411926	-2.415758	2.049322	-36.872873	-93.497111	0.000000	
8.764955	-7.511637	-52.792352	5.963097	-2.107312	1.924416	-31.388861	-121.750097	0.000000	
9.750194	-7.410629	-52.622427	3.766016	-2.418341	2.245612	-36.347745	-80.281122	0.000000	
8.936887	-7.508477	-52.968442	5.618288	-2.168259	1.816229	-32.255617	-114.835000	0.000000	
11.607310	-6.952532	-50.381385	0.796965	-3.004047	2.518079	-47.486731	-24.374323	0.000000	
-4.475374	-10.118834	-68.823753	30.973830	1.679155	-0.176193	19.961955	-459.107826	0.000000	
5.844809	-7.937885	-55.892166	11.042835	-1.332479	1.526045	-18.760131	-206.355356	0.000000	
4.557775	-8.436353	-57.619072	13.581821	-0.807910	1.236737	-10.370675	-244.745452	0.000000	
11.562777	-7.168153	-51.249301	0.105551	-2.885089	2.407615	-44.423472	-10.720177	0.000000	
3.720908	-8.531734	-58.825084	14.829845	-0.652258	1.180798	-8.326412	-261.051249	0.000000	
-4.163447	-9.848111	-69.170289	30.198472	1.646276	-0.105538	19.635680	-445.382809	0.000000	
10.322031	-7.494384	-51.935150	2.991113	-2.602215	2.246558	-39.740991	-66.502652	0.000000	
-2.434563	-9.654450	-65.890139	26.410065	1.146253	0.221933	14.535876	-409.853717	0.000000	
10.233670	-7.404650	-52.453831	2.818540	-2.693416	2.209298	-41.189015	-62.467104	0.000000	
8.014716	-7.693893	-54.347045	7.167601	-1.981339	1.813761	-28.970072	-140.641832	0.000000	
10.053138	-7.052420	-52.105158	2.819634	-2.694003	2.156783	-41.665023	-62.521382	0.000000	
5.232193	-8.471867	-58.313954	12.288998	-1.265930	1.466620	-17.461942	-219.702810	0.000000	
6.956907	-7.969251	-54.859873	8.501836	-1.917135	1.741115	-28.618168	-163.937125	0.000000	
9.433055	-7.504371	-53.142067	5.058384	-2.291284	2.066288	-33.943964	-103.922150	0.000000	
1.988346	-8.594384	-60.200580	18.016841	-0.337881	0.839336	-4.546800	-308.103188	0.000000	
5.846918	-8.286542	-57.279887	10.652628	-1.302513	1.450212	-17.799496	-194.904907	0.000000	
7.923680	-7.649743	-55.039745	7.382929	-2.161186	1.722563	-31.975759	-142.749246	0.000000	
10.322959	-7.095478	-51.586242	2.518365	-2.665365	2.301190	-41.227600	-57.348859	0.000000	
10.362942	-7.227390	-51.761856	2.561083	-2.724943	2.193096	-42.198057	-58.125307	0.000000	
8.901778	-7.552415	-52.792723	5.273333	-2.140556	1.995387	-31.872921	-108.727072	0.000000	
0.705791	-9.354973	-63.313712	20.467698	0.126948	0.546192	1.843138	-332.377515	0.000000	
4.206259	-8.130340	-57.787199	13.927283	-0.898151	1.272621	-12.245712	-249.716792	0.000000	
7.319316	-7.875891	-54.686327	7.554049	-1.891163	1.955983	-27.859730	-147.027664	0.000000	
10.409135	-7.315483	-51.935272	2.603811	-2.694380	2.228489	-41.421406	-58.851819	0.000000	
5.885882	-7.849881	-55.892605	11.301564	-1.179823	1.490798	-15.987514	-210.894440	0.000000	
0.176380	-9.050646	-63.827125	21.286621	0.250483	0.545997	3.292055	-342.273265	0.000000	
10.364471	-7.182652	-51.588053	2.345733	-2.695949	2.229223	-41.773885	-54.095329	0.000000	
2.434581	-8.853273	-61.762842	17.842679	-0.245607	0.889221	-2.552307	-297.745758	0.000000	
8.417285	-7.512096	-54.347690	6.220581	-2.347956	1.938382	-35.299892	-123.027278	0.000000	
6.108630	-7.847634	-56.240103	11.043261	-1.452451	1.525412	-20.518954	-205.001271	0.000000	
11.125346	-7.261737	-51.245292	0.665419	-2.914300	2.461442	-45.475854	-21.748672	0.000000	
4.647455	-8.259940	-57.618101	13.582858	-1.080130	1.290518	-15.008059	-244.595760	0.000000	
5.759669	-8.114818	-56.930732	11.472418	-1.239286	1.541693	-16.879212	-210.325812	0.000000	
10.013850	-7.359857	-53.491541	2.989919	-2.601546	2.171182	-38.918341	-64.427916	0.000000	
-1.068709	-9.288364	-65.552479	24.861109	0.809862	0.294010	10.652266	-388.018077	0.000000	
7.971959	-7.562320	-53.132734	6.737728	-1.954426	1.888073	-29.152779	-135.608030	0.000000	
7.844459	-7.737495	-55.210378	7.123607	-2.042123	1.883070	-29.803344	-137.702774	0.000000	
10.759391	-7.358008	-50.726638	2.087629	-2.696661	2.231032	-42.047114	-50.105965	0.000000	
9.878652	-7.275759	-52.277648	3.249652	-2.571504	2.174388	-39.374181	-70.783132	0.000000	
7.974219	-7.872679	-53.480743	7.081494	-1.952655	1.905041	-28.932715	-141.484356	0.000000	
4.697566	-8.342765	-58.656968	12.934635	-0.870535	1.341285	-11.135035	-229.306295	0.000000	
1.149433	-8.734440	-62.446222	19.996549	0.003587	0.728041	0.302819	-328.881112	0.000000	
8.951995	-7.683397	-52.965594	4.842077	-2.354307	2.083729	-35.753936	-100.371419	0.000000	
8.462624	-7.642181	-54.521919	5.917919	-2.107045	1.937764	-30.724324	-117.219397	0.000000	
9.437433	-7.678438	-52.622941	4.152772	-2.295945	2.120102	-34.354969	-87.915472	0.000000	
7.929765	-8.091850	-54.694300	7.338233	-1.768845	1.830592	-24.993167	-143.282034	0.000000	
9.172461	-7.639285	-53.139773	5.187154	-2.321914	2.119745	-34.796955	-106.492284	0.000000	
1.457434	-8.818634	-62.103287	19.263977	-0.029251	0.710271	0.058347	-318.972738	0.000000	
5.357472	-8.031208	-56.755347	12.076048	-1.267663	1.435032	-17.826553	-221.526232	0.000000	
7.795751	-7.607671	-53.998050	7.168019	-2.042894	1.850326	-30.519682	-141.463702	0.000000	
10.502734	-7.445795	-52.454996	2.301513	-2.816335	2.298350	-43.243621	-52.653174	0.000000	
7.129752	-7.612805	-55.206385	8.416105	-1.674645	1.705239	-23.875400	-160.998055	0.000000	
3.673531	-8.534020	-58.825405	15.304148	-0.710540	1.127425	-9.362317	-269.114897	0.000000	
10.811727	-7.489445	-51.591427	2.043856	-2.908275	2.353945	-45.400324	-48.574187	0.000000	
-2.045378	-9.033535	-65.371753	26.197183	1.055418	0.170319	13.601912	-409.307914	0.000000	
7.845715	-7.869235	-54.518385	6.606368	-2.014801	1.901948	-29.669194	-130.088461	0.000000	
8.415413	-7.559266	-53.482109	6.608748	-2.074766	1.958962	-30.752363	-132.312617	0.000000	
11.384010	-7.174865	-50.035709	0.796237	-2.913811	2.428933	-46.256332	-24.771853	0.000000	
5.310643	-8.340151	-56.757996	11.945957	-1.388877	1.326783	-20.007669	-219.529312	0.000000	
4.692103	-8.126218	-57.963814	13.582856	-0.989071	1.307941	-13.309067	-243.012296	0.000000	
9.080766	-7.591654	-53.660539	4.712391	-2.262844	1.992703	-33.461970	-96.569347	0.000000	
-1.995722	-9.518274	-66.239569	26.238375	0.995833	0.203371	12.555919	-404.988622	0.000000	
8.198663	-7.690444	-54.865912	6.779162	-1.861760	1.955721	-26.335956	-132.236159	0.000000	
9.880160	-7.540055	-52.105885	2.990256	-2.512276	2.174208	-38.363073	-66.320133	0.000000	
10.889849	-7.223729	-50.554243	1.829533	-2.667270	2.213596	-41.461645	-45.019694	0.000000	
7.758420	-7.915669	-55.036918	7.252365	-1.951325	1.919209	-28.332745	-140.655333	0.000000	
5.929980	-8.067399	-57.107078	11.084807	-1.421269	1.397569	-19.848890	-202.844800	0.000000	
8.155690	-7.869118	-53.654114	6.477993	-1.985328	1.993700	-29.260970	-129.778078	0.000000	
1.684405	-8.947906	-62.450509	18.789449	-0.121642	0.816329	-1.221857	-309.721464	0.000000	
5.667485	-8.203319	-56.758813	11.343048	-1.360784	1.434157	-19.159687	-208.768611	0.000000	
10.948412	-7.177913	-50.550399	1.140272	-2.883153	2.499428	-45.670383	-31.337072	0.000000	
9.791517	-7.406973	-53.490439	3.506653	-2.418224	2.135839	-35.725151	-74.138951	0.000000	
8.233652	-7.737769	-54.002848	7.211036	-1.950551	1.814745	-28.352110	-142.382946	0.000000	
4.784474	-8.385825	-59.004832	12.848516	-1.142390	1.286333	-15.598731	-226.540628	0.000000	
4.249065	-8.485305	-57.616677	14.271227	-0.805703	1.237138	-10.633403	-256.768646	0.000000	
5.273161	-8.471737	-57.968847	12.203078	-1.266244	1.413641	-17.526979	-219.523637	0.000000	
6.289040	-7.752990	-56.586919	9.879662	-1.668753	1.559296	-24.041608	-183.092930	0.000000	
8.548228	-7.423575	-54.001914	6.307082	-2.105580	1.957691	-30.896531	-125.319659	0.000000	
9.791886	-7.587005	-53.317840	4.023962	-2.597601	2.154215	-39.202154	-84.268145	0.000000	
8.950536	-7.595928	-53.312138	5.230076	-2.352232	2.065509	-35.489258	-106.910074	0.000000	
6.507630	-8.151358	-55.725405	9.965380	-1.486845	1.543270	-20.916663	-187.850309	0.000000	
6.156337	-8.110550	-56.760890	10.783502	-1.483359	1.541437	-20.835277	-198.811347	0.000000	
3.542465	-8.403323	-58.996237	15.606113	-0.739838	1.163219	-9.958760	-273.332069	0.000000	
5.630417	-8.157313	-57.102780	10.997768	-1.241704	1.558568	-17.000085	-201.424116	0.000000	
7.883685	-7.736342	-55.039136	6.908290	-2.103145	1.775740	-30.962337	-134.215436	0.000000	
8.019109	-7.825274	-54.693179	6.951533	-2.072976	1.866174	-30.462669	-135.941137	0.000000	
8.903292	-7.772826	-52.966942	5.229405	-2.110340	1.994633	-31.198609	-107.776268	0.000000	
7.350196	-7.700393	-53.823255	7.770618	-1.768904	1.743694	-25.990162	-153.213027	0.000000	
8.421538	-7.555635	-54.173612	6.004750	-2.167941	2.028285	-32.083450	-119.481018	0.000000	
5.535792	-8.249907	-56.930792	11.859790	-1.207545	1.452178	-16.542313	-217.262987	0.000000	
6.248326	-7.888575	-56.585932	10.482623	-1.515311	1.649403	-21.370719	-193.886229	0.000000	
6.328863	-8.108433	-56.763388	10.654121	-1.362148	1.469901	-18.528487	-196.521230	0.000000	
7.087588	-7.967412	-55.727081	8.845693	-1.611902	1.703935	-22.576216	-167.567145	0.000000	
8.198351	-7.644876	-54.865970	6.477530	-1.893282	1.937541	-26.910776	-126.691806	0.000000	
7.745243	-7.609993	-54.172284	7.943485	-1.796991	1.743423	-25.937100	-155.328558	0.000000	
7.977604	-7.871102	-54.345811	7.080856	-1.982355	1.938785	-29.027711	-139.231795	0.000000	
6.335753	-8.153185	-55.722697	10.094522	-1.456893	1.632884	-20.553189	-190.178821	0.000000	
7.664234	-7.740477	-55.209711	7.855688	-1.615665	1.830384	-22.262519	-150.967467	0.000000	
7.399330	-8.096423	-54.517541	7.682807	-1.798966	1.777195	-26.170048	-150.069092	0.000000	
6.512329	-7.975593	-55.722754	10.052234	-1.547496	1.668965	-22.001327	-189.240908	0.000000	
6.687836	-7.926304	-56.244147	9.405433	-1.579490	1.613503	-22.198418	-175.945105	0.000000	
7.219709	-7.700769	-55.899703	8.674223	-1.763495	1.721655	-25.088197	-163.717098	0.000000	
6.956060	-8.102609	-54.168126	8.458562	-1.706139	1.742743	-25.079254	-165.359521	0.000000	
6.820805	-7.967719	-55.899265	8.716078	-1.703455	1.613536	-24.414710	-164.735082	0.000000	
7.749420	-7.696530	-54.172002	7.426019	-1.890256	1.796425	-27.654539	-145.866699	0.000000	
7.441432	-8.008668	-54.690820	8.027728	-1.706355	1.759473	-24.353093	-155.812909	0.000000	
6.902724	-7.661013	-54.514005	8.761452	-1.824999	1.581432	-27.160376	-169.417203	0.000000	
7.173337	-7.747826	-54.514648	8.632003	-1.734675	1.724833	-25.224670	-167.129979	0.000000	
7.137752	-7.829786	-56.418300	7.940457	-1.797052	1.773148	-25.541118	-149.342188	0.000000	
7.122912	-7.834959	-55.555898	8.975656	-1.671175	1.543401	-23.674589	-170.286512	0.000000	
6.644142	-7.795972	-55.549907	9.492562	-1.580024	1.669146	-22.519760	-179.570668	0.000000	
7.573351	-7.741999	-54.863462	7.899226	-1.767014	1.777277	-25.249648	-152.710234	0.000000	
7.130848	-7.789810	-55.380347	8.501792	-1.734600	1.704582	-24.884363	-162.221460	0.000000	
7.264919	-8.053313	-55.382724	8.156596	-1.947471	1.703704	-28.591141	-156.248562	0.000000	
7.219650	-7.834039	-55.554135	8.674077	-1.733514	1.722309	-24.699739	-164.862401	0.000000	
7.224360	-7.744640	-55.032911	8.114278	-1.736887	1.830611	-24.982704	-156.152918	0.000000	
6.955106	-7.966708	-55.899626	8.629892	-1.643195	1.667355	-23.201747	-163.191222	0.000000	
6.954477	-8.016047	-55.033439	9.320307	-1.641038	1.723828	-23.515975	-178.342606	0.000000	
7.536181	-7.871772	-56.420999	7.768566	-1.978405	1.826739	-28.357992	-146.330259	0.000000	
7.485594	-7.741682	-55.728737	8.028171	-2.007820	1.739198	-29.279239	-152.665255	0.000000	
7.310981	-7.789969	-54.687626	8.373010	-1.614769	1.831815	-22.813593	-161.911288	0.000000	
7.396075	-8.009959	-54.171323	7.942161	-1.888693	1.742477	-27.992006	-155.721114	0.000000	
7.395212	-7.833234	-54.862924	8.415976	-1.644058	1.741832	-23.190928	-162.223945	0.000000	
6.777212	-7.881169	-56.071061	9.190219	-1.580494	1.649659	-22.192994	-172.602310	0.000000	
7.128166	-7.791227	-55.034590	8.674569	-1.764208	1.669711	-25.576480	-166.376387	0.000000	
7.707239	-7.786328	-54.344656	7.727396	-1.889037	1.831980	-27.590305	-151.044239	0.000000	
7.487433	-7.785761	-54.862698	7.597461	-1.919916	1.794601	-28.124860	-147.256722	0.000000	
7.484494	-7.303702	-53.474393	7.944539	-1.708106	1.870852	-24.876720	-157.043458	0.000000	
7.086673	-8.100576	-54.862407	8.501335	-1.765286	1.687369	-25.716365	-164.054770	0.000000	
7.086299	-7.790292	-55.899559	8.846147	-1.672199	1.685811	-23.588960	-166.882977	0.000000	
7.046719	-7.746484	-55.897700	8.717149	-1.824516	1.775188	-26.354371	-164.536763	0.000000	
7.131966	-7.746469	-56.072259	8.932706	-1.853190	1.721274	-26.700851	-167.871328	0.000000	
7.481066	-7.522651	-54.516138	8.029473	-1.827257	1.724686	-26.605530	-155.841355	0.000000	
7.040307	-8.059804	-55.208216	9.406492	-1.730779	1.669598	-24.982295	-179.386160	0.000000	
7.397993	-7.787780	-55.035303	8.071394	-1.857342	1.776749	-26.993333	-155.410940	0.000000	
6.955196	-8.100700	-55.034459	8.500921	-1.674778	1.686963	-24.127898	-163.537027	0.000000	
7.750457	-8.006390	-54.000423	7.468299	-1.829679	1.796477	-26.617038	-147.432513	0.000000	
7.394497	-7.522494	-54.515173	7.856981	-1.858597	1.742336	-27.269972	-152.679827	0.000000	
7.748290	-7.874264	-55.039112	8.028562	-1.977370	1.740859	-28.815192	-154.710187	0.000000	
7.352691	-7.745868	-55.207803	8.674746	-1.733651	1.777103	-24.717030	-165.814034	0.000000	
7.301945	-7.790879	-54.516972	8.631894	-1.673503	1.653207	-23.969190	-167.165207	0.000000	
7.527851	-7.964260	-55.037999	8.200355	-1.856151	1.722957	-26.838022	-157.926408	0.000000	
7.000409	-7.792166	-55.205391	8.803421	-1.613002	1.759132	-22.890662	-168.199137	0.000000	
7.001156	-7.966631	-56.072563	8.630048	-1.794318	1.702643	-25.781675	-162.693117	0.000000	
7.705932	-7.786024	-55.384037	8.157793	-1.946550	1.776131	-28.127066	-155.995714	0.000000	
7.702876	-7.651989	-54.172194	7.382877	-1.829857	1.742737	-26.587718	-145.023670	0.000000	
7.712004	-7.782394	-56.248664	7.682854	-1.948266	1.845269	-27.731261	-145.163131	0.000000	
7.703823	-7.651663	-54.864615	7.597991	-1.888834	1.741242	-27.336086	-147.124136	0.000000	
7.358111	-7.743726	-55.033487	7.985218	-1.827982	1.866309	-26.501351	-153.805235	0.000000	
7.573478	-7.785897	-55.210125	7.942129	-1.887454	1.758385	-27.277412	-152.578162	0.000000	
6.294827	-7.754410	-56.065388	9.965856	-1.366985	1.722234	-18.869691	-186.327344	0.000000	
7.488034	-8.050265	-55.903192	8.026771	-1.765746	1.756497	-24.857637	-152.476049	0.000000	
7.481550	-7.790143	-53.997828	8.287782	-1.796324	1.743723	-26.279998	-162.391070	0.000000	
7.271119	-7.831406	-55.552784	7.941443	-1.888417	1.846858	-27.436730	-151.675671	0.000000	
7.658718	-7.565388	-54.171095	7.684987	-1.889215	1.760988	-27.729723	-150.513856	0.000000	
7.932198	-7.958703	-54.519769	6.994134	-1.952244	1.884411	-28.432044	-137.289643	0.000000	
7.089555	-8.142747	-56.074203	8.672456	-1.612375	1.702676	-22.447804	-163.620897	0.000000	
6.106281	-7.934438	-56.414711	10.913269	-1.301343	1.453241	-17.781699	-202.151406	0.000000	
7.667520	-8.050772	-54.171781	7.381788	-1.860790	1.885396	-27.195541	-145.417711	0.000000	
8.411081	-7.692736	-52.790988	6.479809	-2.226752	1.870538	-34.028269	-131.733590	0.000000	
7.306906	-7.791705	-54.861679	8.890278	-1.642272	1.760223	-23.249202	-170.830564	0.000000	
8.330366	-7.734304	-54.347851	6.521189	-2.044439	1.956527	-29.804804	-128.787492	0.000000	
6.819066	-7.971239	-56.418536	9.836347	-1.516556	1.613611	-20.886246	-183.086263	0.000000	
6.957986	-7.748269	-54.858067	8.545344	-1.765950	1.795400	-25.862055	-164.509580	0.000000	
9.660167	-7.500946	-53.315816	4.455079	-2.414725	2.190710	-35.912182	-92.266837	0.000000	
9.830592	-7.587268	-52.280054	3.851976	-2.356802	2.085140	-35.317229	-82.635353	0.000000	
7.972224	-7.825630	-54.000934	6.822305	-1.832104	1.832088	-26.431292	-135.280660	0.000000	
5.402707	-8.116255	-58.141598	12.117641	-1.145084	1.395986	-15.268344	-217.061290	0.000000	
4.252078	-8.172215	-58.307138	13.668194	-0.959252	1.271031	-13.147362	-243.094034	0.000000	
4.783656	-8.166957	-57.964321	12.849840	-1.052729	1.342975	-14.318565	-230.403633	0.000000	
7.795002	-7.740967	-53.998954	7.383066	-1.951103	1.832523	-28.820101	-145.582290	0.000000	
10.327161	-7.446913	-53.146012	2.774704	-2.602429	2.297282	-38.852088	-60.883913	0.000000	
9.705220	-7.365590	-52.968583	3.722698	-2.418234	2.208952	-36.160966	-78.896265	0.000000	
6.864751	-7.927488	-55.032797	9.234185	-1.611282	1.687960	-23.067033	-176.689468	0.000000	
4.558392	-8.258002	-57.791294	13.194406	-1.051497	1.235947	-14.556471	-237.141669	0.000000	
5.489884	-8.249004	-56.065428	11.256781	-1.180660	1.417804	-16.351894	-209.847526	0.000000	
5.220633	-8.074607	-57.622044	12.290591	-1.235530	1.289742	-17.145847	-221.972016	0.000000	
8.551972	-7.600700	-53.482458	6.048376	-2.137681	2.030029	-31.785256	-121.877553	0.000000	
11.079128	-7.219662	-52.110714	1.570058	-2.818805	2.424588	-42.950909	-38.715617	0.000000	
8.947801	-7.418995	-53.484903	5.402644	-2.199954	2.029868	-32.532904	-109.608233	0.000000	
5.758013	-8.111428	-57.970704	11.299058	-1.208597	1.449513	-16.062748	-203.573469	0.000000	
4.562795	-8.435623	-57.790934	13.366275	-0.899848	1.325592	-11.928170	-240.289563	0.000000	
3.404445	-8.359443	-59.689362	15.993503	-0.707084	1.018644	-9.433249	-276.616382	0.000000	
7.528621	-7.785482	-55.902720	8.200063	-1.794976	1.721235	-25.339975	-155.311465	0.000000	
10.720085	-7.357075	-50.898379	1.742838	-2.879968	2.301714	-45.552651	-43.164511	0.000000	
9.438660	-7.368646	-53.660113	4.540938	-2.263310	2.154352	-33.096686	-93.141767	0.000000	
6.551850	-7.885807	-55.377732	9.707918	-1.579070	1.579999	-22.663604	-184.106317	0.000000	
4.606470	-8.391859	-57.617912	13.323808	-1.111792	1.325829	-15.597533	-240.229040	0.000000	
5.980464	-7.980635	-56.412039	10.999514	-1.453090	1.578412	-20.597605	-203.735739	0.000000	
5.664760	-8.070966	-57.451325	11.774001	-1.358093	1.379395	-18.894056	-213.633862	0.000000	
7.970966	-7.649914	-53.826897	6.909417	-1.983114	1.832687	-29.320983	-137.150635	0.000000	
11.342029	-7.217358	-50.728032	0.666218	-2.944198	2.427032	-46.281233	-21.928806	0.000000	
10.315975	-7.361861	-51.936004	3.163777	-2.510268	2.139535	-37.976498	-69.682953	0.000000	
6.023885	-8.067174	-57.279156	11.084830	-1.451651	1.522595	-20.230064	-202.238041	0.000000	
3.324939	-8.711296	-60.035165	15.560968	-0.679143	1.124325	-8.992352	-268.151892	0.000000	
5.178390	-7.989220	-57.273758	12.765063	-1.052716	1.380909	-14.094783	-231.517540	0.000000	
4.520028	-8.300397	-59.175095	13.408557	-0.868355	1.304635	-11.175939	-235.274288	0.000000	
6.553881	-7.884266	-55.723728	9.492120	-1.610074	1.596846	-23.082119	-179.094029	0.000000	
11.694820	-7.305770	-49.172361	0.279597	-2.976723	2.502086	-47.979428	-14.835174	0.000000	
10.540892	-7.006454	-50.722077	2.260790	-2.636353	2.303308	-41.103529	-53.135431	0.000000	
4.598286	-8.436348	-57.620411	13.668175	-0.867597	1.165127	-11.366874	-246.238450	0.000000	
1.996083	-9.169599	-60.894566	18.316627	-0.427041	0.926604	-5.960989	-310.054184	0.000000	
7.568818	-7.655171	-54.863970	8.287589	-1.825489	1.706012	-26.319872	-159.698679	0.000000	
4.872391	-8.390268	-57.965615	13.538936	-0.837801	1.379447	-10.524510	-242.502669	0.000000	
4.432722	-8.478811	-59.002077	13.494582	-1.019580	1.304640	-13.852475	-237.589486	0.000000	
11.873147	-6.899611	-51.422862	-0.410363	-3.219451	2.460695	-50.439734	-0.360958	0.000000	
11.343901	-7.302999	-51.594312	0.449745	-2.974626	2.406683	-46.105106	-17.471725	0.000000	
3.138669	-8.581029	-60.035575	16.207363	-0.373549	0.946215	-4.076158	-278.795182	0.000000	
0.442468	-9.183634	-63.482721	21.502225	0.342369	0.618778	4.996776	-347.639547	0.000000	
8.456798	-7.511368	-53.483563	5.876095	-2.168282	1.868658	-32.456615	-118.560144	0.000000	
0.965363	-8.694586	-62.446254	20.987768	0.219760	0.603788	3.599177	-344.718284	0.000000	
4.161268	-8.480775	-59.348372	14.011141	-0.865833	1.143070	-11.442279	-244.913613	0.000000	
12.232359	-6.985321	-51.077792	-0.841295	-3.100329	2.622572	-48.048416	7.984722	0.000000	
10.228778	-7.050803	-52.279775	2.862441	-2.481440	2.156767	-37.274122	-63.132350	0.000000	
7.130155	-7.921493	-56.247309	8.759349	-1.702266	1.648871	-23.938782	-164.443971	0.000000	
4.913324	-8.213276	-56.753787	12.851012	-1.174317	1.345746	-16.621361	-235.367151	0.000000	
6.600557	-7.884610	-56.415769	9.922667	-1.547200	1.649473	-21.647730	-184.539112	0.000000	
-1.821785	-9.428406	-64.682642	25.420823	1.021665	0.206545	13.427344	-401.999847	0.000000	
4.649849	-8.213755	-57.963685	13.366848	-0.899480	1.325577	-11.804358	-239.370958	0.000000	
12.313633	-7.031204	-50.041497	-0.840231	-3.281949	2.517344	-52.565385	8.094204	0.000000	
6.954356	-7.659150	-55.724431	8.889748	-1.733103	1.704222	-24.886409	-168.055279	0.000000	
9.874892	-7.411114	-52.625437	4.068208	-2.597510	2.102484	-39.617358	-86.019415	0.000000	
5.531517	-8.072670	-56.584699	11.645077	-1.268998	1.381326	-17.728939	-214.616593	0.000000	
2.173681	-8.678611	-61.412333	17.800006	-0.186720	0.979724	-1.841879	-298.586052	0.000000	
-3.813729	-9.844600	-69.000837	29.724928	1.494005	-0.159259	17.763425	-439.608856	0.000000	
5.130319	-8.256102	-56.583473	12.808018	-1.113302	1.292521	-15.375531	-235.355781	0.000000	
12.586561	-6.940114	-48.828524	-1.916469	-3.348381	2.734389	-54.898535	30.461306	0.000000	
7.708002	-7.784200	-54.691152	7.382344	-1.980963	1.812803	-29.100540	-143.781162	0.000000	
10.059190	-7.363979	-52.278048	3.378747	-2.449879	2.282130	-36.853623	-73.346669	0.000000	
0.620298	-9.047939	-62.790583	20.512188	0.035253	0.655266	0.328321	-335.574076	0.000000	
-4.262454	-9.806721	-68.306280	30.586906	1.829288	-0.282053	22.491970	-456.658840	0.000000	
1.813366	-8.640059	-61.411119	18.791340	-0.152456	0.837235	-1.613152	-314.699308	0.000000	
0.969530	-9.000461	-62.620919	20.124901	-0.056142	0.601762	-0.815237	-330.253900	0.000000	
12.671005	-6.983420	-48.484265	-2.088752	-3.318629	2.663405	-54.571372	34.186636	0.000000	
11.122944	-7.174505	-51.245293	0.881478	-3.064531	2.425794	-48.410075	-25.869328	0.000000	
11.695059	-6.772053	-50.208439	-0.021343	-3.098367	2.499992	-49.428103	-7.955567	0.000000	
1.154817	-8.909883	-62.619221	19.651155	-0.088836	0.798586	-1.171318	-322.616172	0.000000	
-6.163093	-10.266258	-71.239311	34.030093	2.205807	-0.555952	25.321843	-486.585577	0.000000	
8.146223	-7.516274	-53.481257	6.780708	-1.862568	1.851750	-27.067539	-135.484941	0.000000	
-10.011318	-11.144780	-76.412348	41.520087	3.263326	-1.101147	34.568202	-552.365080	0.000000	
11.513556	-7.039786	-50.210037	0.537903	-2.914239	2.374812	-45.962227	-19.392667	0.000000	
9.437055	-7.415173	-51.582168	3.982153	-2.449037	2.176379	-38.000596	-86.078864	0.000000	
11.515942	-7.084538	-50.382627	0.753029	-2.792369	2.428425	-43.385925	-23.648696	0.000000	
6.507771	-7.755291	-55.549316	10.268316	-1.395234	1.616339	-19.331134	-193.496613	0.000000	
0.133697	-9.273988	-64.173766	21.889282	0.253274	0.563326	3.276185	-350.015187	0.000000	
12.271435	-6.986802	-50.040430	-0.969485	-3.282803	2.553082	-52.630885	10.727171	0.000000	
-10.813909	-11.464980	-76.236900	43.285594	3.662987	-1.296652	39.301237	-577.028225	0.000000	
9.303612	-7.634669	-53.141702	4.367961	-2.324968	2.065279	-34.714709	-91.068309	0.000000	
7.300578	-7.878125	-54.691290	8.502150	-1.673707	1.598788	-23.900444	-164.352194	0.000000	
11.163044	-7.261940	-51.247384	0.881008	-2.912692	2.336278	-45.401366	-25.954860	0.000000	
9.212277	-7.593808	-53.314858	5.186969	-2.200290	2.029984	-32.362123	-106.093895	0.000000	
10.280279	-7.402923	-52.626833	2.516699	-2.724895	2.244417	-41.604648	-56.527085	0.000000	
11.521686	-7.038681	-50.381132	0.107040	-3.158694	2.517036	-50.651873	-10.776258	0.000000	
-5.324383	-9.910772	-68.818123	33.215017	2.020230	-0.353019	24.227621	-491.542498	0.000000	
6.025980	-8.066564	-56.586012	10.611040	-1.394052	1.577579	-19.448235	-196.331861	0.000000	
6.463991	-7.930444	-56.069907	10.052014	-1.546898	1.560686	-21.907679	-188.025173	0.000000	
11.911328	-6.992490	-50.731915	0.494990	-2.973541	2.409648	-46.226511	-18.303354	0.000000	
8.021518	-7.736088	-54.345784	6.521073	-2.166151	1.920349	-32.364370	-128.792085	0.000000	
6.070230	-7.889361	-56.758351	10.611546	-1.454374	1.595316	-20.410628	-195.571929	0.000000	
0.310586	-9.096657	-63.654243	21.631891	0.130970	0.618307	1.543890	-348.665365	0.000000	
8.812869	-7.506752	-54.178191	5.488011	-2.259424	1.920527	-33.364090	-109.882605	0.000000	
-1.106586	-9.552259	-65.379306	24.214190	0.534214	0.364717	6.433924	-379.375299	0.000000	
8.416170	-7.511774	-54.347984	6.263400	-2.166204	1.920705	-31.956627	-123.814143	0.000000	
10.235672	-7.316966	-52.106194	2.818889	-2.573012	2.282045	-39.145663	-62.790720	0.000000	
9.701866	-7.630331	-52.798258	3.549848	-2.569906	2.101136	-39.151318	-76.155725	0.000000	
8.939200	-7.463874	-53.487585	5.704330	-2.228105	1.850914	-33.066639	-115.290163	0.000000	
-0.891433	-9.419026	-65.208152	24.473108	0.838538	0.312319	11.304962	-384.224934	0.000000	
11.739520	-7.346168	-50.212384	-0.066003	-3.128404	2.445335	-49.972789	-7.707111	0.000000	
-8.112536	-10.244727	-72.091498	37.734357	2.883887	-0.769891	32.901793	-532.209364	0.000000	
11.299517	-7.351047	-50.901149	0.881334	-3.003780	2.444454	-47.343905	-26.230522	0.000000	
7.706440	-7.916090	-55.038814	7.510779	-1.828634	1.758327	-26.155609	-145.346073	0.000000	
11.298712	-7.215321	-51.420432	0.579142	-2.792837	2.407520	-42.772305	-19.948846	0.000000	
6.909881	-7.747475	-55.378548	8.674156	-1.734384	1.686750	-25.105119	-165.296271	0.000000	
8.334338	-7.912445	-53.481890	6.262910	-2.167636	2.047504	-32.574004	-126.217238	0.000000	
5.804411	-8.026946	-56.583904	11.386963	-1.360972	1.578293	-19.084031	-210.012636	0.000000	
2.253531	-8.546387	-61.241253	18.016245	-0.245559	0.837221	-2.732444	-302.827697	0.000000	
-0.798203	-9.461127	-64.688522	23.654719	0.592368	0.402050	7.677498	-374.690094	0.000000	
10.545010	-7.447894	-51.589563	2.517487	-2.604288	2.318792	-39.799600	-57.711483	0.000000	
11.120653	-7.086681	-50.725790	0.838880	-2.974237	2.409300	-47.120305	-25.189035	0.000000	
8.730804	-7.595746	-53.656852	5.186220	-2.201456	2.046737	-32.686081	-105.410935	0.000000	
7.435201	-7.745347	-54.690677	8.459848	-1.855323	1.670504	-27.083362	-163.444324	0.000000	
-3.019105	-9.618244	-67.619691	28.692818	1.429482	-0.030767	17.847465	-433.120068	0.000000	
12.229001	-7.119958	-50.386697	-0.711636	-3.190816	2.570299	-50.496227	5.382189	0.000000	
-6.921019	-10.188134	-71.754173	35.968874	2.485647	-0.716598	28.441816	-510.058657	0.000000	
11.125404	-7.086829	-51.243857	1.010990	-3.003672	2.497783	-47.221087	-28.301394	0.000000	
7.215618	-7.612973	-56.073360	8.976071	-1.731472	1.649992	-24.445944	-168.507842	0.000000	
11.162196	-7.220847	-50.207934	1.011464	-3.003848	2.374670	-48.141524	-29.027773	0.000000	
8.237370	-7.689047	-54.694906	6.477759	-2.013835	1.830293	-29.156538	-127.134994	0.000000	
6.111526	-7.844747	-55.547220	9.966204	-1.609200	1.561654	-23.584054	-188.155428	0.000000	
4.027474	-8.484368	-58.308369	14.270196	-0.654232	1.163842	-8.132070	-253.713752	0.000000	
6.017878	-8.116124	-56.241389	11.775165	-1.328194	1.472061	-18.399689	-218.278080	0.000000	
-3.636596	-9.625612	-66.922097	29.296324	1.460118	-0.028926	17.981791	-446.650650	0.000000	
10.901218	-7.220606	-51.417329	1.268680	-2.851304	2.389945	-44.345706	-33.366380	0.000000	
10.592645	-7.312364	-51.934792	2.000362	-2.666923	2.371370	-40.694830	-47.229636	0.000000	
9.886712	-7.497338	-52.622943	3.378172	-2.601473	2.316652	-39.681907	-73.002554	0.000000	
8.811214	-7.553593	-53.832150	5.962278	-2.166842	1.921849	-31.855400	-119.442647	0.000000	
6.333354	-8.110210	-55.896052	10.482531	-1.454879	1.597094	-20.458264	-196.490005	0.000000	
10.542562	-7.356905	-51.936591	2.043618	-2.877986	2.227763	-44.811413	-48.109008	0.000000	
-5.547150	-10.086018	-70.550331	33.600717	2.144336	-0.500356	25.195369	-485.100095	0.000000	
8.685528	-7.688921	-52.963574	5.790285	-2.320505	2.066601	-35.399341	-118.284101	0.000000	
7.621991	-7.917083	-55.037063	7.510855	-1.919924	1.829829	-27.901223	-145.353053	0.000000	
11.249109	-7.220643	-50.382014	1.183817	-2.972369	2.356610	-47.256301	-32.350981	0.000000	
10.015775	-7.495596	-52.105494	2.990578	-2.542527	2.263912	-38.797909	-66.278945	0.000000	
6.109773	-7.848119	-55.893381	10.957318	-1.453264	1.561978	-20.654745	-204.730765	0.000000	
-3.104451	-9.662529	-66.752890	28.089904	1.304635	0.024176	16.147429	-429.738871	0.000000	
11.740151	-7.034789	-50.729989	-0.238097	-3.068363	2.462379	-48.286714	-3.900038	0.000000	
-7.492461	-10.369314	-72.962571	36.915157	2.610387	-0.754902	29.227929	-514.733354	0.000000	
10.857643	-7.042394	-51.762341	1.053335	-2.882375	2.389113	-44.702869	-28.795963	0.000000	
7.842461	-7.562781	-54.170559	7.081879	-2.073490	1.903641	-30.941432	-139.379143	0.000000	
11.523203	-7.172741	-50.554385	0.537484	-3.035780	2.552814	-48.047976	-19.405383	0.000000	
9.126935	-7.371318	-53.658757	4.756482	-2.444333	2.064576	-36.797049	-97.163821	0.000000	
2.923261	-8.540752	-59.858637	16.638535	-0.342669	1.072406	-3.771919	-286.782305	0.000000	
-0.929689	-9.416937	-65.726122	23.998793	0.594438	0.381986	7.463119	-373.985045	0.000000	
11.339204	-7.217963	-51.248294	1.010994	-3.123523	2.354284	-49.321630	-28.442667	0.000000	
-7.441101	-10.635750	-72.442854	36.742781	2.397019	-0.611115	26.537717	-516.247184	0.000000	
10.949015	-7.177534	-51.069734	1.312264	-2.851718	2.498399	-44.597782	-34.394050	0.000000	
9.173453	-7.548789	-53.313017	4.756265	-2.414447	2.118941	-36.421045	-97.971389	0.000000	
11.209451	-7.130497	-50.899607	0.967904	-2.882600	2.427026	-45.063849	-27.688959	0.000000	
8.900875	-7.464761	-53.485472	5.747380	-2.198313	1.976366	-32.551110	-116.100508	0.000000	
1.466234	-9.174329	-61.583175	19.306547	-0.030191	0.890167	0.058243	-322.675152	0.000000	
1.325442	-8.599765	-62.273882	19.523414	-0.270408	0.728012	-3.935422	-322.070034	0.000000	
9.833613	-7.234936	-52.103635	3.853480	-2.569156	2.193348	-39.506503	-82.561843	0.000000	
-3.194036	-9.837593	-67.273655	27.916423	1.304426	-0.067133	15.938511	-423.985827	0.000000	
10.102062	-7.316339	-52.798542	2.861449	-2.663080	2.208592	-40.490530	-62.783413	0.000000	
10.633029	-7.179493	-51.762152	2.000810	-2.606231	2.318331	-39.611639	-47.249078	0.000000	
11.120679	-6.909956	-51.070898	1.054533	-2.882347	2.426972	-45.007908	-29.052774	0.000000	
7.620963	-7.917247	-54.864195	7.467924	-1.950429	1.812249	-28.543703	-145.026151	0.000000	
3.854711	-8.530818	-58.652535	14.571726	-0.834811	1.216680	-11.333047	-257.415149	0.000000	
3.894689	-8.355738	-58.998917	15.175730	-0.922253	1.162910	-12.715202	-265.979672	0.000000	
5.361863	-8.116174	-57.274691	11.514899	-1.269884	1.468941	-17.706525	-209.810638	0.000000	
5.491390	-8.336263	-57.970525	11.815776	-1.357956	1.377682	-18.897324	-212.705174	0.000000	
5.400397	-8.207272	-57.449786	12.376679	-1.174653	1.379804	-15.959673	-224.263195	0.000000	
11.694760	-7.257788	-50.038515	-0.109016	-2.977536	2.445969	-47.178851	-6.772383	0.000000	
10.845486	-6.958512	-51.071872	1.959361	-2.787415	2.212730	-43.450611	-46.822349	0.000000	
7.709055	-7.696148	-54.343797	7.382494	-1.739494	1.867765	-24.837066	-144.606839	0.000000	
6.421199	-8.373186	-55.898844	10.050953	-1.607540	1.542419	-23.100125	-189.023502	0.000000	
4.068365	-8.267119	-58.307530	15.133253	-0.710780	1.164996	-9.062655	-268.310141	0.000000	
5.582495	-8.379230	-57.624316	11.513937	-1.178140	1.450057	-15.796937	-208.782014	0.000000	
7.658702	-7.607010	-55.037638	7.511843	-1.979801	1.704797	-28.951431	-145.053399	0.000000	
2.036256	-8.858201	-60.894234	18.101620	-0.215949	0.873370	-2.457473	-306.238124	0.000000	
10.899847	-7.177748	-51.070877	1.441444	-2.790323	2.391069	-43.448658	-36.922954	0.000000	
11.515275	-6.996347	-50.728610	0.882633	-2.972933	2.409754	-46.655534	-25.950257	0.000000	
7.796643	-8.005143	-53.827188	7.080604	-1.922315	1.832267	-28.373019	-140.700502	0.000000	
6.242235	-7.931993	-55.722370	10.008954	-1.547842	1.525480	-22.279643	-188.421601	0.000000	
1.284537	-8.868328	-61.927358	20.126035	0.034005	0.818904	0.925557	-333.842097	0.000000	
3.365582	-8.576481	-59.689691	15.001257	-0.742004	1.053095	-10.054762	-260.195468	0.000000	
9.258888	-7.503807	-52.967299	4.627209	-2.293918	2.084063	-34.287589	-96.121362	0.000000	
2.037737	-8.902344	-61.067293	18.101506	-0.306623	0.890711	-3.936198	-305.411269	0.000000	
9.172853	-7.593557	-53.659683	5.057660	-2.412744	2.100436	-36.159730	-103.007297	0.000000	
11.913871	-7.433421	-50.387904	0.062921	-3.005947	2.409343	-47.177034	-10.338893	0.000000	
9.698841	-7.454170	-52.624754	3.636757	-2.599776	2.066036	-39.848629	-77.867796	0.000000	
6.770578	-7.840035	-55.379578	9.622074	-1.609008	1.562186	-22.981872	-182.503740	0.000000	
1.066736	-9.175477	-63.139662	19.994518	0.094530	0.761598	1.657709	-325.637814	0.000000	
1.947539	-8.682048	-61.758401	18.532578	-0.274017	0.853968	-3.454946	-308.782488	0.000000	
10.017374	-7.495394	-52.797677	3.248714	-2.540892	2.280440	-38.266909	-70.309605	0.000000	
0.302829	-9.362178	-63.311823	21.717560	0.162096	0.439693	2.041250	-352.135149	0.000000	
8.373707	-7.909798	-54.176516	6.262078	-1.984945	1.920680	-28.753543	-124.591260	0.000000	
11.694764	-6.947631	-51.248746	0.278967	-3.005108	2.443912	-46.621319	-13.862651	0.000000	
10.411585	-7.094209	-51.413830	2.130949	-2.908965	2.301017	-46.004518	-50.001812	0.000000	
9.391691	-7.412043	-52.621758	3.765782	-2.509408	2.084028	-38.461037	-80.279187	0.000000	
4.520560	-8.346742	-59.001843	13.624635	-1.170080	1.322782	-16.319754	-239.669044	0.000000	
1.369801	-8.954588	-61.929766	19.738113	-0.148578	0.728675	-1.945494	-327.643396	0.000000	
8.112565	-7.736263	-54.345486	6.564387	-2.226504	1.992050	-33.381082	-129.589976	0.000000	
1.195060	-8.778272	-62.446333	19.996280	0.124556	0.763967	2.280988	-328.915605	0.000000	
5.268684	-8.295805	-57.276266	12.117942	-1.297226	1.361686	-18.274697	-220.509519	0.000000	
11.745363	-7.035918	-50.208876	-0.409916	-3.191063	2.588718	-51.217676	-0.511255	0.000000	
10.716873	-7.224137	-51.591147	2.044493	-2.908026	2.228876	-45.498896	-48.298248	0.000000	
10.720998	-7.356263	-51.590838	1.914643	-2.818146	2.300307	-43.752515	-45.925323	0.000000	
-0.222563	-9.414334	-63.652599	23.095972	0.469135	0.529705	6.386658	-371.955493	0.000000	
1.770912	-8.509325	-61.062867	18.964326	-0.091907	0.910124	-0.665289	-319.202253	0.000000	
2.791540	-8.850962	-60.379091	16.809949	-0.583583	1.016778	-7.858618	-287.444551	0.000000	
5.576386	-7.941799	-55.890950	11.732199	-1.208863	1.455012	-16.818249	-218.697838	0.000000	
0.714437	-9.091656	-63.136017	20.597982	0.126388	0.780031	1.849359	-335.140226	0.000000	
12.183858	-7.165267	-50.213674	-0.582325	-3.190424	2.552825	-50.710158	2.777703	0.000000	
10.545133	-7.357739	-51.935613	2.258914	-2.695839	2.299834	-41.302294	-52.256244	0.000000	
11.257661	-7.218512	-50.206728	0.494110	-2.946008	2.517608	-46.883932	-18.721359	0.000000	
5.755021	-8.113693	-57.451795	11.515283	-1.359142	1.414965	-18.824018	-209.170625	0.000000	
1.775362	-8.947001	-61.757811	18.272829	-0.185050	0.889117	-2.170819	-304.820225	0.000000	
1.985808	-8.817050	-61.241295	19.006757	-0.181068	0.766022	-1.924657	-319.249395	0.000000	
9.965694	-7.542343	-51.933672	3.507949	-2.570280	2.157212	-39.512165	-76.508185	0.000000	
-4.121235	-10.110727	-68.827017	29.508434	1.492208	-0.195510	17.533476	-437.788484	0.000000	
10.367950	-7.359738	-51.761279	2.431335	-2.695633	2.282377	-41.626839	-55.762747	0.000000	
11.516567	-7.085192	-50.036112	0.624259	-2.974784	2.446838	-47.325903	-21.234041	0.000000	
10.719568	-7.355500	-51.245122	1.570143	-2.910556	2.264858	-45.847213	-39.506236	0.000000	
8.017809	-7.781512	-54.000542	6.779610	-1.983563	1.867810	-29.188882	-134.445154	0.000000	
1.379355	-9.081406	-62.794603	18.745432	-0.152737	0.832931	-1.987233	-307.447059	0.000000	
2.607641	-8.366775	-59.857181	17.026782	-0.371478	0.929485	-4.549137	-293.112392	0.000000	
6.601680	-8.501891	-56.939163	9.834352	-1.607303	1.575495	-22.510450	-181.907504	0.000000	
3.540803	-8.356593	-59.516376	15.304149	-0.831213	1.089995	-11.415462	-265.832735	0.000000	
5.710518	-7.939961	-55.718436	11.301524	-1.331690	1.490788	-18.937234	-211.641117	0.000000	
12.139770	-6.855567	-50.038405	-0.882860	-3.373623	2.571092	-54.595612	9.143627	0.000000	
10.625969	-7.225188	-50.725397	1.872440	-2.788601	2.194996	-44.008211	-45.718026	0.000000	
8.635756	-7.821350	-53.832001	6.392257	-2.014156	1.921916	-29.202020	-127.709481	0.000000	
3.053262	-8.541568	-59.686823	16.897536	-0.371455	1.055218	-4.140580	-291.945588	0.000000	
1.764618	-8.688456	-60.892304	19.481410	-0.149696	0.785307	-1.619777	-328.750909	0.000000	
3.854917	-8.485214	-59.345033	14.614357	-0.803744	1.197264	-10.686284	-255.096100	0.000000	
9.788613	-7.499435	-52.105382	3.766202	-2.418178	2.139249	-36.656107	-81.168898	0.000000	
0.618083	-8.917251	-62.789931	21.072663	0.279719	0.656282	4.219745	-344.386957	0.000000	
10.061628	-7.495907	-52.278421	3.076963	-2.693266	2.299285	-41.506353	-67.715123	0.000000	
12.088503	-6.992012	-48.655055	-0.494593	-3.100519	2.485248	-50.571531	1.289375	0.000000	
8.461798	-7.510299	-53.828572	5.746396	-2.108458	1.957351	-31.137050	-115.394851	0.000000	
6.682161	-7.751220	-55.724907	9.621907	-1.578665	1.543554	-22.388834	-181.285379	0.000000	
1.768937	-9.083153	-60.894107	18.790358	-0.092312	0.802004	-0.673423	-317.756455	0.000000	
3.676619	-8.400080	-58.997113	14.959723	-0.863412	1.180456	-11.925607	-262.368638	0.000000	
7.396959	-7.701222	-54.342134	8.115416	-1.918286	1.796418	-28.450152	-158.103653	0.000000	
5.050597	-8.384611	-58.313580	12.504430	-1.144037	1.359482	-15.546478	-223.314631	0.000000	
5.482481	-8.118484	-57.105332	12.291187	-1.265369	1.273145	-17.559119	-224.026692	0.000000	
12.142978	-6.946039	-48.998690	-0.925611	-3.223853	2.681036	-52.677112	10.123786	0.000000	
10.723881	-7.621276	-51.764972	1.827821	-2.999926	2.317130	-47.116496	-44.383576	0.000000	
6.727402	-7.663947	-54.858284	9.493470	-1.519626	1.617370	-21.607602	-181.705872	0.000000	
3.502267	-8.534609	-58.649608	15.045495	-0.742951	1.217000	-10.104498	-265.509536	0.000000	
1.322420	-8.865970	-62.795561	20.254546	0.126819	0.655869	2.413745	-331.282062	0.000000	
3.625941	-8.401162	-58.998501	15.347440	-0.710046	1.055565	-9.374054	-268.935153	0.000000	
10.766996	-7.223423	-52.109144	2.173149	-2.695697	2.353439	-40.925776	-50.294424	0.000000	
-0.094886	-8.880986	-62.959206	22.365105	0.526279	0.495748	7.487088	-363.959136	0.000000	
9.527466	-7.457143	-52.794869	4.067615	-2.598662	2.173421	-39.883794	-85.783640	0.000000	
12.056788	-6.943984	-50.210016	-0.926625	-3.253300	2.660151	-52.108041	9.882435	0.000000	
8.995803	-7.549896	-53.831442	5.229441	-2.109788	2.082550	-30.603549	-105.826806	0.000000	
4.341709	-8.302381	-58.308553	13.193608	-1.021600	1.270357	-14.130085	-235.074187	0.000000	
1.946084	-8.639812	-60.892378	18.619436	-0.153418	0.874220	-1.513703	-314.549995	0.000000	
1.950334	-8.946162	-62.105726	18.488244	-0.152990	0.870750	-1.488776	-306.584941	0.000000	
4.208744	-8.260463	-58.999884	13.883011	-1.018270	1.251457	-14.043760	-243.974192	0.000000	
9.744307	-7.366392	-52.104388	3.637142	-2.388644	2.139322	-36.137679	-78.550208	0.000000	
3.628885	-8.487778	-59.864272	15.346450	-0.679168	1.071326	-8.731312	-265.122157	0.000000	
11.739331	-7.035630	-50.383761	-0.194753	-3.038202	2.463276	-48.015409	-4.782463	0.000000	
11.658974	-7.037787	-50.900064	0.236022	-3.097279	2.623583	-48.785587	-13.207723	0.000000	
6.683386	-7.574060	-55.896646	9.579211	-1.609131	1.579165	-22.866287	-179.789204	0.000000	
3.855455	-8.485383	-59.171680	14.571337	-0.773902	1.215580	-10.210457	-255.114181	0.000000	
0.840335	-9.178932	-63.139509	20.554959	-0.024061	0.636461	-0.421724	-334.517897	0.000000	
3.716207	-8.534559	-58.999116	15.605752	-0.648361	1.109495	-8.242590	-273.437470	0.000000	
5.891865	-7.934687	-56.584767	10.654393	-1.394096	1.541898	-19.582420	-196.971546	0.000000	
8.190468	-7.825408	-54.522502	7.210419	-2.010670	1.795368	-29.236465	-141.112518	0.000000	
8.104132	-7.470257	-54.173122	6.564905	-2.014338	1.849766	-29.577070	-129.733747	0.000000	
12.231453	-7.029886	-50.905137	-0.841236	-3.130637	2.604968	-48.805091	7.964287	0.000000	
11.294521	-7.041412	-51.073753	1.054319	-2.881612	2.373150	-44.800066	-29.191414	0.000000	
4.560847	-8.436260	-58.657185	13.926155	-0.956924	1.270283	-12.738550	-246.298525	0.000000	
1.017253	-8.869413	-62.445773	20.426995	0.126138	0.728306	2.146573	-335.897863	0.000000	
0.178803	-9.185961	-63.134261	21.416404	0.098978	0.619067	0.939247	-348.196537	0.000000	
5.401129	-8.204021	-57.450121	11.686793	-1.147405	1.361237	-15.484583	-212.250295	0.000000	
6.598741	-7.798050	-55.722843	9.966733	-1.638316	1.651194	-23.544132	-187.527449	0.000000	
10.366041	-7.227328	-51.760894	2.560855	-2.574004	2.264920	-39.279392	-58.121903	0.000000	
9.215714	-7.374266	-52.965442	5.145122	-2.412963	2.138361	-36.582110	-105.765797	0.000000	
11.248952	-7.217112	-51.421517	1.010270	-2.820839	2.300391	-43.370274	-28.334582	0.000000	
11.292768	-7.043140	-50.208184	1.054965	-2.852061	2.375236	-44.972222	-29.695450	0.000000	
5.225865	-7.853795	-56.580096	11.774516	-1.118375	1.453396	-15.371313	-216.704649	0.000000	
0.302745	-9.007841	-63.136511	21.502988	0.251555	0.476352	3.465953	-349.397245	0.000000	
1.410596	-8.997697	-61.931393	19.694657	0.002895	0.657098	0.537320	-326.972193	0.000000	
4.785367	-8.210372	-58.137411	12.720285	-1.083484	1.360252	-14.805637	-227.533556	0.000000	
8.770974	-7.640358	-53.658430	5.444664	-2.109133	1.975394	-30.922565	-110.270969	0.000000	
10.592104	-7.359113	-51.588486	2.388550	-2.665542	2.390425	-40.936560	-55.116767	0.000000	
10.545711	-7.092181	-51.587571	1.915278	-2.849067	2.336382	-44.545261	-45.653249	0.000000	
8.769928	-7.375433	-53.830196	5.531699	-2.229624	1.975339	-33.065862	-111.262410	0.000000	
9.526512	-7.457278	-52.448702	4.067503	-2.356960	2.174504	-35.534512	-86.342472	0.000000	
7.664807	-7.739473	-55.902560	7.726560	-2.099495	1.792260	-30.650668	-146.795583	0.000000	
3.046800	-8.583439	-59.343110	16.337262	-0.434050	0.894113	-5.220907	-284.230139	0.000000	
1.728546	-8.728341	-61.063886	18.446377	-0.154737	0.891266	-1.733138	-310.916090	0.000000	
5.667809	-8.204678	-58.316776	12.462484	-1.173048	1.431768	-15.449312	-222.410040	0.000000	
7.001599	-7.836387	-55.724884	8.932563	-1.823736	1.757733	-26.465094	-169.000709	0.000000	
10.365736	-7.314896	-52.108042	2.517351	-2.664502	2.227994	-40.760023	-56.999509	0.000000	
9.746024	-7.235314	-52.449138	4.025477	-2.507863	2.192701	-38.176520	-85.303037	0.000000	
8.861718	-7.639413	-53.485289	5.143294	-2.231582	2.029184	-33.214333	-104.989676	0.000000	
8.016290	-7.781728	-54.174128	6.908904	-2.043193	1.831632	-30.200156	-136.403831	0.000000	
6.994296	-7.615521	-55.898663	9.234629	-1.700759	1.632621	-24.192594	-173.659964	0.000000	
6.828252	-7.967514	-56.589719	8.887914	-1.642232	1.755509	-23.037175	-165.771383	0.000000	
6.019324	-8.068192	-56.760819	11.171363	-1.390891	1.452316	-19.341661	-205.602976	0.000000	
6.335796	-8.150093	-56.762152	9.921267	-1.486849	1.576470	-20.718926	-183.655707	0.000000	
7.481798	-7.652759	-55.209790	7.855978	-1.766811	1.686851	-25.185562	-150.883353	0.000000	
7.264838	-7.790150	-54.861106	8.459142	-1.674641	1.777647	-23.882468	-162.972068	0.000000	
7.710799	-7.737844	-54.690471	6.822134	-2.074358	1.848047	-30.805712	-133.492098	0.000000	
7.487592	-7.700089	-54.861498	8.287166	-1.675094	1.849426	-23.662746	-159.744056	0.000000	
7.969308	-7.912648	-55.387942	7.123156	-2.101340	1.703210	-30.652992	-137.433209	0.000000	
7.664619	-7.827738	-55.903062	7.855167	-1.796434	1.792581	-25.229415	-149.183390	0.000000	
6.863586	-8.015354	-56.072657	9.707154	-1.487109	1.632216	-20.440529	-181.950723	0.000000	
7.443413	-7.918573	-55.382596	7.941246	-1.736513	1.775761	-24.601260	-152.224006	0.000000	
7.882688	-7.826926	-54.520012	7.296005	-1.799425	1.795466	-25.679876	-142.690301	0.000000	
8.284923	-7.646141	-54.174201	6.478367	-2.014581	1.939115	-29.393738	-128.315957	0.000000	
7.666927	-7.696695	-55.208687	7.769986	-1.858258	1.883850	-26.654292	-149.373415	0.000000	
6.908324	-7.793709	-55.032541	9.062047	-1.551444	1.688085	-21.935383	-173.425975	0.000000	
7.393570	-8.055039	-54.864724	8.587943	-1.733787	1.687770	-24.827325	-165.579872	0.000000	
6.023016	-7.845185	-56.931870	10.697751	-1.483928	1.523332	-20.916455	-196.448976	0.000000	
6.998422	-8.013918	-55.034103	8.932266	-1.612320	1.705535	-22.949081	-171.287384	0.000000	
3.985312	-8.528637	-59.173706	14.485344	-0.924922	1.161611	-12.639149	-253.693258	0.000000	
7.703669	-7.563807	-54.863942	7.770509	-1.767159	1.759593	-25.118798	-150.180542	0.000000	
7.353151	-8.007280	-55.556389	7.984064	-1.857113	1.703349	-26.788694	-152.610664	0.000000	
8.461161	-7.556044	-54.521415	6.392527	-2.165434	1.938302	-31.797058	-125.836805	0.000000	
7.349631	-7.834798	-54.862790	8.760748	-1.582076	1.724293	-22.107826	-168.510196	0.000000	
6.952052	-7.926552	-54.687532	8.889921	-1.794259	1.670390	-26.463995	-171.503783	0.000000	
6.329218	-7.933091	-55.376645	10.310735	-1.304621	1.544839	-17.933566	-195.043585	0.000000	
7.047363	-8.056070	-55.379934	8.587103	-1.674244	1.775989	-23.879271	-164.032890	0.000000	
8.813243	-7.553665	-53.138423	5.574913	-2.229849	1.976790	-33.444562	-113.701703	0.000000	
6.112245	-8.065187	-56.414162	10.395588	-1.334258	1.542073	-18.359379	-193.106962	0.000000	
7.220113	-7.657083	-54.860323	8.244141	-1.826902	1.759524	-26.703967	-158.919220	0.000000	
6.336947	-7.754351	-56.932020	10.439501	-1.394073	1.666847	-19.028722	-191.822833	0.000000	
7.000888	-7.923400	-54.860089	8.286140	-1.736490	1.741194	-25.280248	-159.957829	0.000000	
7.705540	-7.740443	-54.518326	7.468732	-1.920078	1.777600	-28.076041	-145.773912	0.000000	
7.978407	-7.649115	-53.651790	6.435570	-2.137203	1.975788	-32.278344	-128.762891	0.000000	
11.342178	-7.261642	-51.074493	0.924258	-2.791524	2.426563	-42.983232	-26.886461	0.000000	
7.963758	-7.651686	-54.174864	7.727849	-1.706433	1.707508	-24.037990	-151.384013	0.000000	
9.612715	-7.278643	-52.622179	3.852467	-2.417895	2.138312	-36.486013	-81.783635	0.000000	
6.770827	-7.884539	-55.726014	9.880261	-1.547077	1.561620	-21.732296	-186.052166	0.000000	
7.484993	-7.786185	-54.690109	7.726692	-1.768092	1.759473	-25.437550	-150.082273	0.000000	
7.973523	-7.602707	-55.557849	7.123481	-1.829526	1.829024	-25.664942	-136.708243	0.000000	
5.932670	-7.892050	-56.239145	10.913567	-1.423200	1.507210	-20.174710	-202.742950	0.000000	
5.891996	-8.067098	-57.278138	11.041197	-1.210237	1.522721	-16.144830	-201.479765	0.000000	
6.953701	-7.746888	-56.244719	9.061385	-1.641015	1.667294	-23.026876	-169.647355	0.000000	
7.751499	-7.564190	-54.516808	7.598586	-1.889445	1.849720	-27.467603	-147.978456	0.000000	
6.423976	-8.147858	-57.109382	9.705498	-1.487207	1.557581	-20.517378	-178.763653	0.000000	
6.864065	-8.015980	-55.553036	9.492295	-1.670048	1.650954	-23.916923	-179.777997	0.000000	
6.201822	-7.665532	-56.585286	10.051999	-1.486906	1.595565	-20.915084	-186.057096	0.000000	
8.726267	-7.687775	-52.964972	5.703938	-2.229723	1.994982	-33.641271	-116.649508	0.000000	
5.092581	-8.164460	-57.273949	12.290266	-1.085310	1.380077	-14.747885	-223.398499	0.000000	
9.388777	-7.370113	-52.968207	4.498606	-2.445221	2.048234	-37.005921	-93.550172	0.000000	
8.724731	-7.864954	-52.620138	5.703561	-2.139093	1.959804	-32.135864	-117.590393	0.000000	
6.687390	-7.662198	-55.896094	9.449633	-1.609998	1.650565	-22.877999	-177.561246	0.000000	
6.597990	-7.928314	-55.897426	9.621145	-1.548734	1.596593	-21.871204	-180.892499	0.000000	
7.262276	-7.788637	-55.035251	8.286481	-1.644723	1.705380	-23.268394	-159.320124	0.000000	
8.020298	-7.648958	-54.518448	6.952135	-2.043109	1.920630	-30.008718	-136.203810	0.000000	
7.351458	-7.567696	-54.860987	8.201357	-1.796481	1.759740	-26.014817	-158.046032	0.000000	
7.485641	-7.920403	-54.171119	7.727030	-1.950058	1.778224	-29.032131	-151.657615	0.000000	
7.931419	-7.691925	-55.730711	7.166606	-2.101613	1.846113	-30.512347	-137.150356	0.000000	
9.168219	-7.283356	-53.139097	4.799962	-2.232635	2.048330	-33.121771	-98.831418	0.000000	
9.133713	-7.767027	-54.179115	4.496121	-2.354586	2.134247	-34.787701	-91.842681	0.000000	
7.349981	-7.743634	-55.901547	8.630910	-1.642170	1.685882	-22.786297	-162.979945	0.000000	
5.225554	-8.339928	-56.929680	11.902385	-1.238165	1.380177	-17.386239	-218.104147	0.000000	
5.005287	-8.207358	-58.312611	12.375539	-1.144680	1.341674	-15.601348	-220.937441	0.000000	
7.705272	-7.741601	-54.171854	7.598211	-1.829112	1.796563	-26.571647	-149.092412	0.000000	
7.797878	-7.914201	-54.865678	6.950868	-2.042979	1.811762	-30.048882	-135.595107	0.000000	
6.862167	-7.750079	-55.725118	9.492756	-1.579117	1.633126	-22.215619	-178.965892	0.000000	
6.868922	-7.880608	-55.378099	8.716766	-1.674033	1.740429	-24.057020	-166.201943	0.000000	
6.733268	-7.926044	-55.724668	9.061179	-1.702460	1.650124	-24.559023	-171.399707	0.000000	
8.597260	-7.733771	-53.483191	6.134423	-2.227977	2.047763	-33.425625	-123.624361	0.000000	
7.442572	-7.962590	-55.902630	8.156317	-1.765228	1.738812	-24.894236	-154.706939	0.000000	
5.001558	-8.074324	-57.620292	12.031493	-1.116315	1.289461	-15.290705	-217.481821	0.000000	
7.574098	-7.742978	-55.209396	8.243917	-1.795520	1.794680	-25.611943	-158.002802	0.000000	
7.570408	-7.828867	-54.518930	7.382152	-1.950701	1.687623	-28.776509	-144.275246	0.000000	
6.955797	-8.012683	-55.379971	8.716518	-1.703869	1.704371	-24.506969	-166.325684	0.000000	
6.957273	-7.834440	-56.071299	8.673450	-1.764091	1.720858	-25.287059	-163.338535	0.000000	
8.993823	-7.375108	-52.617966	5.058606	-2.202367	2.103340	-33.052732	-104.815557	0.000000	
8.331418	-7.999139	-54.522506	6.477327	-2.135134	1.937661	-31.374221	-127.845614	0.000000	
5.403837	-8.248026	-57.796028	11.686642	-1.298509	1.396017	-18.008432	-211.024942	0.000000	
6.071191	-8.198423	-56.760129	10.524486	-1.484902	1.576816	-20.946903	-194.337524	0.000000	
7.354819	-7.876352	-54.688941	7.941844	-1.737398	1.795324	-25.010393	-154.112078	0.000000	
7.880047	-7.826996	-54.867174	7.425396	-2.010003	1.722882	-29.363044	-144.150925	0.000000	
4.958316	-8.255388	-57.273782	12.807009	-0.931982	1.344696	-12.202357	-232.510570	0.000000	
6.156453	-8.022229	-56.413984	10.611625	-1.514737	1.560103	-21.514652	-196.894337	0.000000	
6.421758	-7.667590	-55.028059	9.967301	-1.518469	1.670959	-21.833988	-189.762199	0.000000	
6.466364	-8.016819	-57.109039	10.093996	-1.515613	1.558164	-20.973253	-185.438716	0.000000	
10.098782	-7.363085	-51.414100	2.819268	-2.634061	2.193886	-40.998784	-63.682721	0.000000	
2.614820	-8.717542	-61.416216	17.067608	-0.339975	0.979076	-3.934142	-286.677647	0.000000	
8.287735	-8.001026	-54.521836	6.779236	-2.224731	1.955746	-33.062872	-133.386508	0.000000	
10.546138	-7.180448	-51.414898	1.785871	-2.880022	2.336498	-45.293815	-43.383269	0.000000	
6.108958	-8.020834	-57.107573	10.654165	-1.543911	1.450947	-21.820437	-195.256418	0.000000	
-0.759294	-9.329196	-64.516120	23.913753	0.714783	0.331417	9.631385	-379.589471	0.000000	
6.027994	-8.333294	-56.759930	11.084127	-1.210438	1.613265	-16.154144	-204.331306	0.000000	
-4.388324	-9.985242	-69.516523	31.232322	1.741672	-0.195167	20.724746	-458.151258	0.000000	
10.767433	-7.534770	-50.725498	1.871782	-2.819193	2.373744	-44.454741	-46.047397	0.000000	
10.058701	-7.493541	-52.279710	2.602781	-2.755501	2.209172	-42.698915	-58.640835	0.000000	
9.615006	-7.100756	-52.620581	3.551226	-2.449728	2.191993	-37.089619	-75.871637	0.000000	
-1.288926	-9.290035	-64.858210	24.602907	0.716786	0.295144	9.149145	-388.183319	0.000000	
-1.595868	-9.511990	-66.934843	25.548529	0.903545	0.237056	11.373722	-390.478810	0.000000	
2.038061	-8.592405	-62.277307	18.618543	-0.152208	0.906894	-1.395249	-307.516031	0.000000	
10.365115	-7.270176	-51.934948	2.259167	-2.816962	2.210136	-43.829504	-52.167169	0.000000	
11.696903	-7.259738	-50.037497	0.321951	-2.854923	2.518188	-44.726975	-15.387557	0.000000	
4.608619	-8.476714	-59.349999	13.365275	-1.110048	1.285801	-15.133898	-234.020757	0.000000	
-6.864885	-10.449643	-71.753394	34.890731	2.238265	-0.539143	25.038358	-495.243019	0.000000	
0.744914	-9.051299	-62.273344	21.503575	0.523888	0.586434	8.296480	-354.277523	0.000000	
5.981840	-8.064908	-56.759268	10.223063	-1.546854	1.540759	-22.127027	-188.897915	0.000000	
7.395803	-7.922785	-54.343733	8.330161	-1.796165	1.760598	-26.203329	-162.279385	0.000000	
11.652758	-7.171080	-50.383129	0.279102	-3.066722	2.499282	-48.678474	-14.338389	0.000000	
-1.284862	-9.243291	-66.242409	24.645043	0.717940	0.327799	8.962366	-380.685325	0.000000	
-8.516100	-10.602941	-73.997114	39.455683	3.074401	-0.988300	34.302819	-542.058215	0.000000	
7.932328	-8.001551	-54.520263	6.692252	-1.983758	1.866097	-29.009678	-131.795441	0.000000	
3.501084	-8.577375	-60.035708	15.432273	-0.739804	1.142371	-9.838063	-265.880678	0.000000	
0.618314	-8.916936	-62.789932	20.986483	0.249087	0.656164	3.732105	-343.014149	0.000000	
12.007352	-7.034872	-50.384620	-0.280265	-3.310441	2.552659	-53.119342	-3.084358	0.000000	
4.290377	-8.308107	-59.001813	15.046368	-0.589064	1.181401	-6.691241	-263.728857	0.000000	
-5.141513	-10.081387	-69.858456	32.437903	1.957404	-0.302715	23.102628	-473.247459	0.000000	
12.221343	-7.032350	-49.349330	-0.926055	-3.252593	2.447210	-52.801693	9.956939	0.000000	
-1.194286	-9.288897	-65.549649	24.688597	0.777949	0.419122	10.058415	-385.403478	0.000000	
-5.982671	-10.262655	-72.105607	33.770944	2.175377	-0.504425	24.726540	-477.152551	0.000000	
12.626077	-6.896551	-48.656547	-1.700702	-3.286645	2.663514	-53.775414	26.187591	0.000000	
7.003914	-8.012649	-56.417979	9.189955	-1.670846	1.774158	-23.437387	-171.672044	0.000000	
0.484506	-9.051253	-63.136434	21.416834	0.251150	0.601731	3.621069	-348.071676	0.000000	
13.154099	-6.934701	-49.180967	-2.260882	-3.498810	2.625972	-56.921951	37.246343	0.000000	
-7.443222	-10.277302	-72.268873	35.665996	2.422514	-0.664953	26.954634	-502.310051	0.000000	
-3.817248	-9.804526	-67.096121	29.812620	1.613768	-0.136543	20.072039	-453.338787	0.000000	
12.537446	-6.940459	-49.349188	-1.614911	-3.497457	2.607854	-57.404308	24.020256	0.000000	
10.720771	-7.270640	-51.589842	2.518456	-2.785367	2.336902	-43.118198	-57.537176	0.000000	
9.785760	-7.322770	-52.451260	4.110992	-2.204496	2.103434	-32.348723	-87.023558	0.000000	
12.850453	-7.112925	-49.697913	-2.046760	-3.347272	2.678379	-53.631701	32.340780	0.000000	
-10.857729	-11.201501	-76.061359	43.544993	3.754369	-1.241772	40.562860	-581.574102	0.000000	
5.586507	-8.114803	-57.448147	11.514805	-1.148580	1.576308	-15.324499	-209.176615	0.000000	
9.484549	-7.457644	-52.620933	4.110541	-2.417398	2.209870	-36.614074	-86.880800	0.000000	
8.551210	-7.688261	-53.483407	5.875709	-2.168539	1.993861	-32.362475	-118.738836	0.000000	
10.854804	-7.310634	-51.764327	1.785472	-2.848611	2.335726	-44.052006	-43.229291	0.000000	
9.572447	-7.410832	-52.621735	3.636537	-2.449439	2.191581	-37.128709	-77.821816	0.000000	
-6.207841	-10.356378	-70.893154	34.245504	2.297116	-0.554983	26.701887	-492.067369	0.000000	
11.647250	-7.081148	-51.076940	0.494001	-2.852862	2.372807	-43.846963	-18.263224	0.000000	
3.941656	-8.574070	-58.827075	14.528572	-0.925204	1.180293	-12.755412	-255.961489	0.000000	
9.126825	-7.722969	-54.527102	4.840805	-2.321929	1.990544	-33.978883	-97.537727	0.000000	
7.218306	-7.833528	-55.900877	8.802988	-1.641766	1.685827	-22.911510	-166.150399	0.000000	
1.635844	-8.905467	-62.277785	19.134522	-0.089826	0.745488	-0.755946	-316.080837	0.000000	
10.502471	-7.357348	-51.935011	2.086466	-2.727054	2.317515	-41.949903	-48.935945	0.000000	
5.316130	-8.115727	-57.621298	11.557730	-1.299561	1.414353	-18.164319	-209.296335	0.000000	
-1.151649	-9.329713	-65.897515	24.213961	0.776542	0.346133	10.016111	-376.205389	0.000000	
9.608705	-7.147446	-51.410223	3.595266	-2.510629	2.105202	-39.135764	-78.546356	0.000000	
10.060534	-7.361367	-52.451406	2.732372	-2.755022	2.262836	-42.550627	-60.780848	0.000000	
9.655309	-7.409213	-53.490333	3.980573	-2.295195	2.064685	-33.568067	-83.001367	0.000000	
11.344512	-7.259296	-51.074277	0.320853	-2.915279	2.443750	-45.403887	-15.069730	0.000000	
-3.018211	-9.748628	-67.101291	27.873971	1.244015	-0.048658	15.228192	-424.365795	0.000000	
6.464192	-7.577715	-56.240526	10.354495	-1.424681	1.614985	-19.670295	-192.483653	0.000000	
7.040107	-7.968471	-54.861893	8.630906	-1.704202	1.651900	-24.650809	-166.282948	0.000000	
10.058011	-7.539155	-52.453031	3.076533	-2.602007	2.209328	-39.634833	-67.530484	0.000000	
7.920558	-7.475848	-53.999969	7.685631	-1.888541	1.743803	-27.530550	-150.907153	0.000000	
3.055830	-8.934589	-60.035832	15.947844	-0.526379	0.998947	-6.699219	-274.801695	0.000000	
10.540365	-7.449668	-51.244301	2.819551	-2.602923	2.248251	-40.040890	-63.991374	0.000000	
1.284446	-8.997989	-62.101924	19.565117	-0.028612	0.763926	-0.087633	-323.990899	0.000000	
4.608671	-8.432916	-59.176434	13.408512	-1.019331	1.304334	-13.642943	-235.393865	0.000000	
10.098455	-7.543234	-51.241554	3.508597	-2.540441	2.212727	-39.307519	-77.544228	0.000000	
9.036545	-7.770262	-53.141144	4.798543	-2.293234	1.993692	-34.399883	-99.315028	0.000000	
9.789480	-7.102084	-51.929318	3.767385	-2.358159	2.211987	-35.620997	-81.034788	0.000000	
8.861980	-7.461869	-54.176848	5.272679	-2.290960	2.027870	-33.896137	-105.864205	0.000000	
2.435065	-8.720218	-61.761944	17.713763	-0.276518	0.907176	-3.052385	-295.541897	0.000000	
5.179389	-8.343306	-56.756178	12.635088	-1.023430	1.381512	-13.699146	-231.681391	0.000000	
6.025196	-8.506674	-57.282115	10.480208	-1.605313	1.467421	-22.910321	-192.102964	0.000000	
10.988607	-7.130820	-51.244558	1.053388	-2.731173	2.390468	-42.052614	-29.176557	0.000000	
8.149971	-7.645003	-55.213290	6.649839	-2.012901	1.829236	-28.962097	-129.020869	0.000000	
9.839164	-7.720165	-52.278432	3.679422	-2.509469	2.245845	-38.229360	-79.479837	0.000000	
7.175343	-7.879348	-55.207743	8.674284	-1.794408	1.722967	-25.997804	-165.941501	0.000000	
3.320962	-8.712424	-60.209251	15.991861	-0.616288	1.052746	-7.928392	-274.536573	0.000000	
4.026903	-8.307931	-58.480563	14.357030	-0.804962	1.163620	-10.688442	-254.284646	0.000000	
8.591052	-7.640877	-54.177790	5.659721	-2.168299	1.866695	-31.912087	-113.191687	0.000000	
10.412388	-7.137700	-52.106529	2.388664	-2.725765	2.299760	-41.886670	-54.340639	0.000000	
8.149716	-7.382344	-54.172291	6.694505	-1.983622	1.903838	-28.963293	-132.037036	0.000000	
8.195903	-7.865185	-55.560946	6.606059	-2.133659	1.827939	-30.912853	-127.653036	0.000000	
6.197453	-7.845151	-56.067759	10.483094	-1.515335	1.525263	-21.612279	-195.635550	0.000000	
6.025853	-8.201432	-55.893923	10.740666	-1.454590	1.597000	-20.762517	-201.207335	0.000000	
4.429533	-8.436023	-57.270989	12.978730	-1.113953	1.290287	-15.898327	-235.697223	0.000000	
6.159431	-8.065404	-56.586631	10.524802	-1.303469	1.613515	-17.714932	-194.804572	0.000000	
10.763076	-7.574923	-51.939805	1.698142	-2.788062	2.209425	-42.839167	-41.690130	0.000000	
9.348567	-7.324541	-54.006138	4.670031	-2.262484	2.099917	-32.967978	-94.894715	0.000000	
8.065825	-7.823591	-54.692874	6.692560	-1.862496	1.919923	-26.566507	-131.205118	0.000000	
8.549597	-7.420018	-54.521576	5.789238	-2.077145	1.938063	-30.086614	-114.631321	0.000000	
5.139689	-8.296231	-57.447559	12.117588	-1.237189	1.414994	-17.303476	-219.848695	0.000000	
1.290724	-8.996086	-63.139361	19.521237	-0.058589	0.850963	-0.568331	-317.984128	0.000000	
9.615142	-7.542317	-52.796620	3.549874	-2.479570	2.137137	-37.533659	-76.065011	0.000000	
10.370552	-7.449201	-51.587638	2.646423	-2.453122	2.354791	-37.060519	-60.214373	0.000000	
7.487013	-7.784909	-54.862968	7.424998	-1.920610	1.776515	-28.137804	-144.111625	0.000000	
8.460122	-7.600317	-54.348792	6.392390	-2.074752	1.920828	-30.228101	-126.277109	0.000000	
9.880685	-7.320219	-52.450463	3.335673	-2.601373	2.209794	-39.814344	-72.240207	0.000000	
0.078839	-9.322397	-64.522305	23.311079	0.653740	0.385087	9.413152	-370.206689	0.000000	
4.832624	-8.345069	-57.617801	12.892896	-1.113618	1.451031	-15.409030	-232.705138	0.000000	
7.265389	-7.833849	-54.861330	8.329722	-1.705461	1.777420	-24.443587	-160.657059	0.000000	
11.119607	-7.220279	-51.419356	1.441447	-2.910333	2.372290	-45.253672	-36.724708	0.000000	
7.798468	-7.957518	-55.385287	7.122395	-1.799808	1.810895	-25.383222	-137.471472	0.000000	
6.953988	-7.880625	-56.072208	9.147621	-1.791996	1.667427	-25.787613	-171.838564	0.000000	
4.698439	-8.123957	-57.789252	12.850082	-1.083669	1.415020	-14.977683	-231.061602	0.000000	
3.454350	-8.842966	-60.384120	15.732887	-0.677411	1.051906	-8.795996	-269.576396	0.000000	
5.228734	-8.207248	-58.659379	12.720315	-1.082120	1.430991	-14.233547	-225.513657	0.000000	
9.349246	-7.678410	-53.488775	4.411000	-2.415184	2.082281	-36.133343	-91.333187	0.000000	
11.437113	-7.305610	-50.034528	0.278565	-2.916653	2.589490	-46.254647	-14.572752	0.000000	
8.239425	-7.692255	-54.520515	7.124343	-1.829980	1.921117	-25.872960	-139.401827	0.000000	
6.601120	-7.838894	-55.896225	9.233717	-1.762429	1.649860	-25.691578	-173.875402	0.000000	
-1.240238	-9.245218	-64.510658	24.258461	0.714642	0.403214	9.211788	-384.891921	0.000000	
7.005364	-8.234021	-55.899480	8.974275	-1.732774	1.792694	-24.753865	-169.620707	0.000000	
-1.909390	-9.606146	-66.587666	26.367460	0.876180	0.148730	10.761982	-404.888348	0.000000	
12.137114	-7.075112	-50.387037	-0.841058	-3.130777	2.480664	-49.406654	8.000639	0.000000	
9.443557	-7.633169	-52.967439	3.894199	-2.448510	2.226420	-37.010506	-82.419265	0.000000	
9.876941	-7.232063	-52.797235	3.637383	-2.569211	2.137776	-38.952834	-77.391886	0.000000	
7.268943	-7.920558	-55.207505	8.027546	-1.797411	1.811899	-25.957177	-154.269431	0.000000	
4.736993	-8.212068	-57.964913	13.065184	-1.021417	1.289378	-13.823403	-234.160033	0.000000	
5.664999	-7.983664	-57.104163	11.860669	-1.297650	1.416332	-17.945434	-216.359626	0.000000	
6.289284	-7.843584	-56.413754	10.396495	-1.394500	1.596211	-19.251285	-192.904026	0.000000	
5.890473	-8.024669	-56.239187	10.826972	-1.454018	1.524777	-20.764786	-201.335348	0.000000	
9.708606	-7.453677	-52.968263	3.550147	-2.509961	2.262296	-37.889331	-75.732426	0.000000	
9.967829	-7.365288	-52.451392	3.680405	-2.508840	2.210229	-37.956263	-78.859554	0.000000	
9.790350	-7.231154	-52.969445	3.507477	-2.358239	2.155320	-34.937579	-74.689487	0.000000	
7.575079	-7.828027	-55.556607	7.639924	-1.888516	1.757198	-27.129707	-146.234633	0.000000	
1.769329	-8.773641	-61.411430	19.049317	0.030070	0.837457	1.318803	-319.020559	0.000000	
6.776180	-8.012990	-56.418681	9.189651	-1.640474	1.594826	-23.125246	-171.664877	0.000000	
5.004908	-8.209108	-58.485643	12.763675	-1.294049	1.341485	-18.111826	-226.924293	0.000000	
8.729307	-7.509123	-53.656385	5.617518	-2.139048	2.047363	-31.524815	-113.359417	0.000000	
9.524508	-7.413527	-52.622077	4.283054	-2.355715	2.138543	-35.398499	-90.110236	0.000000	
9.880596	-7.410447	-52.104405	3.594295	-2.540070	2.228720	-38.897104	-77.775290	0.000000	
8.421948	-7.509701	-53.827217	5.444712	-2.200969	2.028585	-32.898024	-109.792450	0.000000	
3.362858	-8.667968	-61.421919	16.680635	-0.460656	0.997069	-5.215308	-280.305567	0.000000	
6.115757	-8.066151	-56.586213	10.525100	-1.515326	1.613256	-21.502337	-194.812008	0.000000	
6.645059	-8.149617	-56.244557	9.792946	-1.668681	1.631341	-23.826718	-183.056378	0.000000	
6.379007	-8.241383	-55.550643	10.051286	-1.426770	1.615267	-20.028446	-190.076115	0.000000	
9.044084	-7.371976	-53.656542	4.713256	-2.414975	2.171997	-36.338030	-96.362879	0.000000	
9.656433	-7.277374	-53.316000	3.895304	-2.568108	2.100747	-38.792865	-81.532051	0.000000	
9.082473	-7.553273	-51.407250	4.800681	-2.325369	2.141454	-36.108576	-102.442126	0.000000	
4.603532	-8.300970	-58.484338	13.323149	-0.989739	1.234462	-13.294019	-236.583704	0.000000	
3.941415	-8.444504	-58.652531	15.175524	-0.741213	1.235487	-9.654285	-267.627089	0.000000	
7.445216	-8.053011	-54.690021	7.941535	-1.797777	1.830884	-26.021191	-154.284648	0.000000	
6.863179	-8.012858	-56.419628	9.232994	-1.730700	1.576918	-24.637558	-172.430106	0.000000	
8.280928	-7.558655	-54.001412	6.737189	-1.862114	1.886332	-26.666028	-133.425889	0.000000	
9.445577	-7.588511	-53.139829	3.808061	-2.509404	2.261756	-38.036777	-80.486410	0.000000	
9.962966	-7.188992	-51.759044	3.466116	-2.661313	2.140100	-41.404556	-75.572302	0.000000	
7.002507	-7.966967	-55.552538	8.543858	-1.553365	1.757853	-21.676884	-162.657306	0.000000	
4.429282	-8.436132	-58.136780	13.452328	-1.050572	1.270854	-14.583328	-240.345638	0.000000	
5.229174	-8.297274	-57.620632	12.548497	-1.114113	1.468949	-15.030761	-226.670195	0.000000	
7.003837	-7.835110	-55.897550	8.759779	-1.703525	1.793112	-24.232962	-165.388816	0.000000	
8.014459	-7.650943	-54.000328	7.254286	-2.011560	1.832617	-29.710932	-143.100260	0.000000	
8.423278	-7.955000	-53.655956	6.047257	-2.228699	2.046810	-33.515930	-121.835729	0.000000	
9.345184	-7.591011	-52.449842	4.110428	-2.598636	2.030638	-40.335486	-87.302078	0.000000	
9.387571	-7.461764	-52.275907	4.929915	-2.353181	2.068184	-35.726201	-103.127309	0.000000	
7.754227	-8.093868	-55.385250	7.897993	-1.766288	1.829381	-24.822850	-151.613399	0.000000	
4.380051	-8.215293	-58.482810	13.754220	-0.927729	1.181188	-12.448447	-243.878562	0.000000	
5.046646	-8.211039	-57.793563	13.022669	-1.111843	1.343611	-15.126075	-234.115227	0.000000	
7.353695	-7.875512	-55.555222	8.156856	-1.826259	1.739640	-26.233318	-155.591055	0.000000	
8.190331	-7.826032	-54.176056	7.253572	-1.859594	1.814311	-26.629914	-142.806887	0.000000	
8.509286	-7.686039	-54.348644	5.745578	-2.138296	1.991681	-31.346608	-114.464784	0.000000	
8.684575	-7.554499	-52.963244	5.488611	-2.170550	2.048749	-32.569267	-112.446516	0.000000	
9.796473	-7.453206	-52.795862	3.421175	-2.601170	2.262543	-39.644690	-73.533720	0.000000	
7.305859	-7.835739	-54.862367	8.804160	-1.793741	1.724077	-26.010870	-169.303746	0.000000	
4.077876	-8.664764	-57.614802	14.529358	-0.865900	1.326516	-11.845263	-261.432036	0.000000	
4.875543	-8.253441	-58.310985	12.633838	-1.053378	1.395615	-14.160831	-225.417589	0.000000	
7.394197	-7.746040	-55.381990	8.847243	-1.823137	1.723050	-26.215509	-168.409922	0.000000	
8.015835	-7.693578	-54.000554	6.823259	-2.164715	1.831960	-32.545557	-135.162064	0.000000	
7.796307	-7.957981	-56.078448	7.596087	-1.796912	1.755976	-25.029734	-144.229720	0.000000	
9.257315	-7.416253	-52.447541	4.627730	-2.203602	2.085527	-32.899232	-96.982143	0.000000	
9.786516	-7.588601	-52.625871	4.239735	-2.385166	2.084640	-35.676292	-89.467309	0.000000	
7.265088	-7.878863	-55.207953	8.588295	-1.885435	1.758677	-27.555309	-164.382836	0.000000	
5.136190	-8.122756	-56.927322	12.721816	-1.053448	1.417287	-14.230225	-232.293436	0.000000	
4.564650	-8.434941	-58.656422	13.452296	-1.201242	1.323298	-16.900311	-238.221909	0.000000	
6.778089	-7.703082	-55.896827	8.716894	-1.764324	1.667586	-25.547571	-164.491197	0.000000	
8.729279	-7.820124	-53.658115	5.961604	-2.167654	2.029291	-32.056974	-120.093549	0.000000	
8.285051	-7.646937	-53.827720	6.478649	-2.014934	1.957852	-29.584306	-129.142742	0.000000	
8.371032	-7.602447	-53.655581	6.393006	-2.166301	1.922312	-32.407865	-127.911763	0.000000	
9.351115	-7.679535	-53.661133	4.755594	-2.292742	2.136089	-33.736087	-97.465291	0.000000	
8.637236	-7.643165	-53.484427	5.832749	-2.138089	1.958149	-31.702304	-117.886059	0.000000	
5.980327	-8.066692	-56.413036	10.524948	-1.424798	1.542010	-20.095881	-195.405387	0.000000	
3.850561	-8.353403	-59.345341	14.830387	-0.862991	1.125950	-11.688708	-258.610370	0.000000	
4.559291	-8.391600	-57.964807	13.538752	-0.928892	1.253725	-12.399220	-242.504163	0.000000	
8.151900	-7.602803	-54.173153	6.564491	-1.954005	1.921324	-28.413869	-129.863318	0.000000	
8.371008	-7.733765	-54.349216	6.521216	-2.044015	1.884897	-29.754325	-128.784230	0.000000	
8.511832	-7.511772	-52.614330	5.316594	-2.293389	2.120874	-35.298949	-109.871851	0.000000	
9.169738	-7.372241	-53.486015	5.015108	-2.291957	2.065437	-34.019555	-102.311363	0.000000	
7.309080	-8.009174	-54.516855	7.855470	-1.828552	1.741574	-26.805964	-153.148323	0.000000	
7.176215	-7.922481	-56.246877	8.932008	-1.792340	1.702721	-25.494412	-167.515881	0.000000	
6.024523	-8.067430	-56.413132	10.740519	-1.393540	1.560203	-19.497798	-199.227082	0.000000	
1.199574	-8.997022	-62.793176	19.564386	0.032042	0.798117	0.794759	-320.420711	0.000000	
8.636644	-7.775762	-53.658661	5.875536	-2.258586	1.921620	-33.848153	-118.441964	0.000000	
11.076565	-7.221091	-50.899169	1.312437	-2.881354	2.409226	-45.186225	-34.557987	0.000000	
8.021561	-7.824171	-55.038934	6.864937	-2.012736	1.901163	-29.179251	-133.517765	0.000000	
8.635472	-7.689134	-53.311750	6.177627	-2.106365	1.940952	-31.209222	-124.782715	0.000000	
4.032107	-8.483406	-59.173111	14.226934	-0.986674	1.215133	-13.638477	-249.285894	0.000000	
1.593572	-8.640971	-61.755763	18.877169	-0.212836	0.818364	-2.785963	-314.338223	0.000000	
5.755699	-7.891784	-57.277141	11.257222	-1.269862	1.451381	-17.319617	-205.083100	0.000000	
1.994723	-9.078169	-62.626320	18.659950	-0.151591	0.851604	-1.420843	-306.903160	0.000000	
8.373698	-7.778407	-53.482889	6.133819	-2.076984	1.958128	-30.837148	-123.660590	0.000000	
11.520373	-7.128130	-50.208704	0.322351	-3.067047	2.499710	-48.999263	-15.198767	0.000000	
7.744308	-7.831284	-53.654521	7.727891	-1.919190	1.708090	-28.458275	-153.032844	0.000000	
11.256289	-7.262318	-51.419479	1.096360	-2.790876	2.461682	-42.781234	-30.059279	0.000000	
3.588570	-8.621771	-58.651515	14.873007	-0.833981	1.162914	-11.573675	-262.643421	0.000000	
-0.362307	-9.107181	-63.305244	23.441743	0.561182	0.423848	7.756179	-379.181674	0.000000	
8.732636	-7.552261	-54.348539	5.616991	-2.229378	2.081387	-32.791981	-111.960920	0.000000	
-4.124866	-9.713567	-69.517980	30.069339	1.586118	-0.231730	18.699322	-441.193169	0.000000	
10.281004	-7.449251	-51.414495	2.345197	-2.787354	2.300735	-43.781137	-54.555707	0.000000	
12.139322	-6.897981	-50.558515	-0.926768	-3.222005	2.534083	-51.043719	9.862586	0.000000	
6.557307	-7.928541	-56.069381	9.535086	-1.761061	1.649584	-25.634109	-178.805593	0.000000	
9.438806	-7.323235	-52.620507	3.808722	-2.206998	2.174138	-32.664696	-81.002420	0.000000	
4.430732	-8.258468	-58.654776	13.538454	-0.928945	1.305935	-12.386509	-239.528654	0.000000	
-0.669771	-9.153350	-63.649174	23.785613	0.773863	0.423313	10.780432	-382.580437	0.000000	
3.501570	-8.490601	-59.168953	15.347001	-0.741118	1.198219	-9.992389	-268.240155	0.000000	
4.867323	-8.081223	-56.926167	13.152614	-0.930915	1.328149	-12.342997	-239.824848	0.000000	
9.351413	-7.549042	-52.793582	4.713756	-2.414858	2.191917	-36.590304	-98.122407	0.000000	
11.517273	-7.038116	-51.075083	0.451231	-3.065408	2.408341	-48.152774	-17.379187	0.000000	
9.439992	-7.368786	-52.793494	4.024473	-2.478196	2.191496	-37.695948	-84.874771	0.000000	
8.416008	-7.822483	-54.349746	6.607291	-2.073820	1.902762	-30.255979	-130.458289	0.000000	
1.324686	-8.734482	-61.581859	19.781897	-0.027895	0.747887	-0.033419	-330.000266	0.000000	
2.124813	-8.814321	-60.374891	17.973010	-0.277344	0.910368	-3.406423	-306.694408	0.000000	
2.128310	-8.812419	-62.105749	18.316589	-0.304735	0.924486	-3.771316	-303.700081	0.000000	
11.481137	-7.038968	-51.418675	0.580337	-3.095598	2.568823	-48.462833	-19.780303	0.000000	
5.715782	-8.289794	-56.931983	10.911812	-1.513895	1.486799	-21.745577	-200.646711	0.000000	
9.441198	-7.457560	-52.274130	3.895109	-2.358342	2.228428	-35.768549	-83.330526	0.000000	
11.923300	-6.902325	-50.555133	-0.323356	-3.220386	2.642019	-51.254811	-2.077229	0.000000	
9.170722	-7.771486	-53.314849	5.272711	-2.230410	2.065570	-32.970818	-107.889125	0.000000	
2.300283	-8.770239	-60.029629	18.016752	-0.307258	0.929306	-3.755812	-309.141179	0.000000	
2.791345	-8.584441	-60.897134	16.767168	-0.583382	1.015903	-7.795345	-284.058140	0.000000	
1.279938	-8.779015	-61.408855	19.738749	-0.028272	0.730242	-0.078322	-330.265731	0.000000	
7.534573	-7.786037	-54.169391	7.339294	-1.861381	1.885661	-27.345322	-144.365421	0.000000	
10.371836	-7.313587	-52.279677	2.172416	-2.726844	2.334669	-41.814707	-50.215772	0.000000	
10.584889	-7.050680	-51.415307	2.605211	-2.724797	2.283958	-42.232132	-59.177029	0.000000	
8.945685	-7.948497	-53.489048	5.314793	-2.139344	1.921555	-31.399545	-108.512832	0.000000	
8.947814	-7.420888	-53.311477	5.661669	-2.320005	2.048320	-34.888047	-114.822854	0.000000	
7.002894	-8.146230	-55.899526	9.146975	-1.731864	1.757167	-24.740050	-172.621929	0.000000	
4.785826	-8.300043	-57.618223	12.677536	-1.205151	1.379093	-17.043110	-228.921883	0.000000	
3.497758	-8.447887	-59.342588	15.907172	-0.556775	1.144880	-6.862644	-276.856899	0.000000	
4.519294	-8.614913	-57.271796	13.538805	-1.020670	1.344482	-14.181402	-245.648424	0.000000	
5.937078	-7.934195	-56.931100	10.740391	-1.393383	1.559109	-19.411001	-197.288322	0.000000	
8.682027	-7.730791	-53.658346	5.789288	-2.138009	1.957593	-31.553772	-116.788278	0.000000	
8.907900	-7.728184	-53.485538	5.143387	-2.413084	2.064716	-36.559210	-105.084054	0.000000	
9.791404	-7.322000	-52.969312	3.981592	-2.416761	2.191422	-36.041387	-83.736654	0.000000	
8.464119	-7.910692	-53.656862	6.176611	-2.137035	1.993387	-31.764339	-124.198119	0.000000	
7.220431	-7.835372	-55.207385	8.760640	-1.763805	1.759014	-25.397821	-167.462097	0.000000	
6.692870	-7.883670	-56.242143	9.621207	-1.609304	1.739214	-22.724267	-179.745329	0.000000	
4.921269	-8.340875	-58.311541	12.418159	-1.114776	1.413149	-15.169630	-221.800852	0.000000	
5.268226	-8.121114	-57.447982	12.721671	-1.143325	1.398134	-15.543911	-230.191360	0.000000	
5.844736	-8.157671	-56.932691	11.343020	-1.239310	1.469898	-16.795248	-208.088011	0.000000	
6.510324	-7.885842	-56.069310	9.965965	-1.547386	1.614445	-21.870246	-186.447842	0.000000	
8.416184	-7.557790	-53.655265	6.392939	-2.015093	1.958403	-29.542685	-127.864558	0.000000	
7.793953	-7.605541	-55.037773	7.339335	-1.859505	1.776567	-26.627780	-141.917193	0.000000	
7.931024	-7.827819	-53.999504	7.124274	-1.952173	1.903887	-28.698295	-140.878565	0.000000	
7.888413	-7.826731	-54.518481	7.037682	-2.012759	1.902473	-29.587746	-137.955818	0.000000	
7.176843	-7.744651	-55.553111	8.372534	-1.765314	1.739995	-25.315845	-159.347142	0.000000	
7.262925	-7.567615	-55.553193	8.416329	-1.825310	1.722385	-26.308836	-159.956437	0.000000	
7.794348	-7.693868	-55.557755	7.511317	-1.979225	1.757327	-28.540414	-143.781311	0.000000	
6.994718	-7.838849	-55.033704	9.406873	-1.519331	1.670539	-21.263342	-179.734055	0.000000	
7.218592	-7.788319	-55.208201	8.114275	-1.917630	1.686559	-28.185596	-155.704035	0.000000	
7.263240	-7.654597	-55.553914	8.114273	-1.826572	1.703982	-26.330899	-154.605056	0.000000	
7.082695	-7.881300	-55.034914	9.105125	-1.580843	1.652255	-22.290891	-174.290568	0.000000	
6.554031	-7.841738	-55.896308	9.880287	-1.699027	1.614704	-24.604524	-185.445308	0.000000	
6.507164	-8.107317	-55.552076	9.922529	-1.487181	1.543704	-20.985983	-187.618047	0.000000	
6.252689	-7.843422	-55.545611	9.707495	-1.489812	1.758746	-21.292744	-183.501909	0.000000	
7.355239	-7.789698	-55.207496	8.459348	-1.916243	1.812457	-28.021939	-161.957892	0.000000	
7.707133	-7.694876	-55.729887	7.726571	-1.917954	1.775048	-27.443066	-147.203192	0.000000	
8.240302	-7.645188	-54.520572	6.391858	-2.044909	1.902314	-29.814191	-125.918218	0.000000	
7.885433	-7.739067	-55.038099	7.511715	-1.979764	1.848131	-28.719380	-145.184487	0.000000	
7.402700	-7.786656	-55.034100	7.769514	-1.798566	1.866092	-25.921110	-149.927853	0.000000	
6.419841	-8.018617	-56.762904	10.266827	-1.605841	1.523197	-22.731887	-189.611119	0.000000	
7.530024	-7.610315	-54.515699	7.813761	-1.858706	1.813915	-27.132232	-151.975958	0.000000	
7.267986	-7.834931	-55.033627	8.502345	-1.886262	1.830730	-27.652169	-163.294413	0.000000	
5.892472	-8.068642	-56.412039	10.869684	-1.363089	1.560271	-19.089717	-201.521813	0.000000	
7.353277	-7.877279	-55.381842	8.501770	-1.734193	1.758406	-24.651022	-162.305310	0.000000	
7.659839	-7.521823	-54.516783	7.857637	-2.099979	1.778092	-31.423775	-152.686692	0.000000	
7.536755	-7.920369	-54.515514	7.941916	-1.646891	1.939213	-23.239982	-154.646381	0.000000	
6.911923	-8.189318	-56.073415	8.974099	-1.702117	1.666856	-24.226291	-169.049205	0.000000	
7.257823	-7.703021	-54.862373	8.847445	-1.702644	1.652669	-24.399532	-169.956968	0.000000	
7.181423	-7.965059	-56.419022	8.629767	-1.672925	1.791708	-23.297280	-161.692502	0.000000	
6.016411	-8.024617	-55.895537	10.913585	-1.453090	1.418284	-20.744594	-204.117677	0.000000	
7.398250	-7.831011	-54.689344	7.726533	-1.798659	1.777227	-26.085815	-150.127448	0.000000	
7.180118	-8.103005	-53.995270	8.545412	-1.856958	1.850723	-27.717373	-167.495187	0.000000	
6.950018	-7.530800	-55.031495	9.537393	-1.730716	1.688790	-25.150902	-181.798905	0.000000	
8.820935	-7.684727	-54.176791	5.573824	-2.289943	2.081551	-33.919906	-111.653683	0.000000	
7.617672	-7.829883	-54.518042	7.640707	-1.828808	1.777674	-26.492481	-149.021189	0.000000	
7.623354	-7.521101	-55.380050	8.072016	-1.796569	1.919870	-25.504482	-154.189595	0.000000	
6.691797	-8.057659	-55.032060	8.414655	-1.736409	1.686693	-25.517376	-161.932686	0.000000	
7.267755	-8.011854	-55.034764	8.587924	-1.795044	1.812732	-25.994380	-165.026427	0.000000	
7.445493	-7.963255	-55.728512	8.156472	-1.765666	1.810884	-24.974481	-155.191207	0.000000	
7.004959	-7.743801	-56.762954	8.500740	-1.764410	1.772955	-24.947018	-158.225931	0.000000	
6.600261	-7.795809	-56.588468	9.965746	-1.456134	1.649336	-19.975097	-184.651640	0.000000	
6.732519	-7.928039	-56.243957	9.793564	-1.608033	1.649717	-22.661402	-182.848267	0.000000	
7.221435	-7.744613	-55.553226	8.415647	-1.734825	1.758017	-24.721923	-160.122840	0.000000	
7.352938	-8.012387	-54.516635	8.588468	-1.825311	1.778162	-26.701467	-166.597649	0.000000	
6.638437	-8.062083	-55.206746	9.707440	-1.457804	1.544504	-20.446775	-184.844517	0.000000	
7.571712	-7.654431	-55.036367	8.201087	-1.735215	1.759416	-24.596698	-157.628497	0.000000	
7.531268	-7.874985	-55.036590	7.941934	-1.857612	1.794495	-26.861739	-153.143968	0.000000	
6.554274	-8.106736	-55.897902	9.922403	-1.547497	1.596595	-21.892771	-186.459500	0.000000	
7.750950	-7.608129	-54.690406	7.684401	-1.798100	1.831511	-25.713254	-149.125508	0.000000	
7.356871	-7.920457	-55.381315	8.156935	-1.856941	1.811613	-26.864014	-156.124035	0.000000	
7.262171	-7.703160	-54.861113	8.761333	-1.763897	1.742151	-25.512144	-168.391354	0.000000	
7.488556	-7.786040	-55.381769	7.898801	-1.887980	1.811616	-27.290849	-151.325590	0.000000	
7.261861	-8.188243	-54.864530	8.544417	-1.794760	1.669454	-26.073455	-164.923347	0.000000	
7.529277	-7.830970	-55.383102	8.243380	-1.734852	1.758339	-24.484070	-157.589224	0.000000	
6.951257	-7.968352	-56.419906	9.319244	-1.609156	1.595177	-22.395561	-173.913706	0.000000	
6.731818	-7.839509	-55.204654	9.320246	-1.520323	1.669857	-21.485115	-177.611469	0.000000	
6.427747	-8.107034	-56.588002	10.051130	-1.577358	1.684532	-22.288534	-186.470607	0.000000	
7.440735	-7.744671	-55.208558	8.545391	-1.673484	1.777102	-23.537397	-163.467541	0.000000	
6.951870	-7.836374	-55.379851	8.932434	-1.611958	1.651203	-22.851354	-170.046219	0.000000	
7.045014	-8.054864	-56.419816	8.802066	-1.823311	1.683942	-26.098096	-164.833416	0.000000	
7.172356	-7.836131	-53.996029	8.416496	-1.675476	1.707812	-24.364035	-164.828006	0.000000	
7.701481	-7.653505	-53.652849	7.512540	-1.769204	1.744162	-25.708437	-148.837882	0.000000	
7.708034	-7.873243	-54.518460	7.425396	-2.011150	1.813091	-29.743883	-145.115346	0.000000	
7.710096	-7.783310	-54.690683	7.166730	-1.951826	1.848453	-28.565870	-139.839055	0.000000	
7.437249	-7.655679	-54.689762	8.115287	-1.917513	1.706061	-28.218845	-157.054766	0.000000	
7.308375	-7.701423	-54.514790	8.201270	-1.827194	1.778213	-26.782756	-159.180572	0.000000	
7.131369	-7.833716	-54.687903	8.114147	-1.706710	1.723778	-24.678956	-157.221911	0.000000	
8.054653	-7.561932	-55.040159	7.771003	-1.947433	1.741318	-27.958432	-149.709398	0.000000	
6.999686	-7.746532	-55.725025	8.760006	-1.612631	1.722093	-22.678615	-165.813238	0.000000	
7.046258	-8.098817	-55.380890	8.199276	-1.887478	1.721563	-27.730305	-157.070480	0.000000	
6.999210	-7.749171	-55.205348	8.976341	-1.823896	1.741226	-26.712064	-171.287876	0.000000	
7.222485	-7.568874	-54.859105	8.158417	-1.978756	1.813155	-29.470201	-157.269895	0.000000	
7.610721	-7.744231	-54.172787	8.115715	-1.977770	1.671387	-29.413268	-158.645431	0.000000	
7.436310	-7.922367	-54.345102	8.373254	-1.765301	1.688987	-25.592951	-163.067846	0.000000	
7.048503	-7.833665	-55.897930	8.458118	-1.765241	1.792779	-25.292045	-159.989602	0.000000	
7.439203	-7.745019	-54.516360	8.287353	-1.735614	1.760507	-24.967504	-160.799919	0.000000	
7.575426	-8.096557	-54.691823	7.984647	-1.797058	1.795122	-25.873620	-155.112522	0.000000	
6.952919	-7.836549	-55.379573	8.889518	-1.733215	1.668945	-25.039965	-169.272305	0.000000	
7.490409	-7.961006	-55.555805	7.596262	-1.828674	1.810705	-26.138446	-145.585127	0.000000	
8.862978	-7.504378	-54.003995	4.798482	-2.323457	2.027712	-34.602814	-97.463829	0.000000	
6.684232	-7.664509	-55.377196	9.708875	-1.699857	1.616125	-24.710852	-183.901158	0.000000	
2.709565	-8.895034	-60.723332	16.766272	-0.523695	1.123343	-6.908029	-285.141061	0.000000	
11.342373	-7.173202	-50.900708	0.838374	-2.761884	2.444970	-42.544756	-25.190692	0.000000	
9.878892	-7.631056	-51.760051	3.421380	-2.480377	2.175356	-37.999229	-75.185759	0.000000	
10.149388	-7.493101	-51.933245	2.430556	-2.665856	2.281644	-41.154378	-55.709885	0.000000	
-3.196197	-9.711266	-66.579693	28.995083	1.399178	-0.010377	17.534164	-444.491155	0.000000	
-4.694714	-10.072925	-69.687836	30.800346	1.739101	-0.214271	20.388274	-450.898866	0.000000	
12.674813	-6.939727	-49.348567	-1.658112	-3.346561	2.733475	-54.191079	24.896832	0.000000	
6.553121	-7.754042	-55.549449	10.009724	-1.426584	1.633997	-19.849657	-188.839733	0.000000	
9.303962	-7.324713	-53.139697	4.239452	-2.295475	2.101481	-34.160624	-88.326115	0.000000	
0.660873	-8.961821	-62.444520	21.029838	0.218956	0.639045	3.312826	-345.641672	0.000000	
-0.219048	-9.278865	-63.824375	22.492616	0.466348	0.582642	6.326764	-361.384134	0.000000	
6.775900	-7.883807	-55.724752	9.535656	-1.730473	1.650659	-25.018773	-179.871575	0.000000	
5.360451	-8.384169	-56.756860	11.902593	-1.268473	1.452243	-17.837424	-218.813177	0.000000	
4.874215	-8.431844	-58.485410	13.064433	-1.111646	1.359469	-15.118502	-232.281337	0.000000	
12.096882	-6.809313	-50.037700	-1.228226	-3.042640	2.589060	-48.029803	16.097752	0.000000	
11.697850	-7.037217	-50.901933	0.279108	-3.066267	2.516197	-48.131706	-14.053083	0.000000	
7.301606	-7.832507	-55.729957	8.587958	-1.853902	1.578365	-26.701983	-162.798020	0.000000	
1.329469	-8.954280	-62.101554	19.694637	-0.028064	0.799983	-0.038138	-326.038949	0.000000	
-1.465144	-9.201556	-66.068598	24.989987	0.749382	0.256865	9.310811	-386.870228	0.000000	
1.102169	-8.823905	-62.793508	20.470028	0.127152	0.655994	2.222363	-334.686882	0.000000	
7.666813	-7.962318	-54.864027	7.726346	-1.828381	1.866346	-26.272351	-149.782918	0.000000	
10.455014	-7.315543	-51.761799	2.603810	-2.573629	2.282807	-39.175031	-59.046376	0.000000	
6.829300	-7.614621	-55.201842	8.286588	-1.737187	1.848208	-25.315652	-158.666839	0.000000	
11.435576	-7.258702	-51.593566	0.449976	-2.974755	2.496388	-46.008561	-17.428267	0.000000	
12.048097	-7.126703	-48.654276	-0.236065	-3.251014	2.556772	-53.712091	-4.179491	0.000000	
7.312000	-7.834741	-54.860682	8.545256	-1.644179	1.849391	-23.279158	-164.588611	0.000000	
0.972360	-8.824949	-62.272347	20.254754	0.125176	0.710666	2.098847	-334.025066	0.000000	
-0.889943	-9.019711	-64.859223	23.828146	0.623382	0.366617	8.054032	-375.998138	0.000000	
5.006838	-8.339847	-57.274125	11.815565	-1.178398	1.379181	-16.457159	-215.281415	0.000000	
10.367105	-7.404672	-51.934835	2.689754	-2.694262	2.264241	-41.464872	-60.603500	0.000000	
7.493497	-7.696326	-54.860547	7.252822	-1.921985	1.919801	-28.157442	-140.888905	0.000000	
9.262795	-7.592966	-52.966685	4.627267	-2.475694	2.155396	-37.715730	-96.218003	0.000000	
11.033064	-6.954247	-51.070594	0.839183	-3.155800	2.408421	-50.458849	-24.884897	0.000000	
9.750958	-7.720211	-53.317383	4.066622	-2.567497	2.207806	-38.680945	-85.209139	0.000000	
3.137215	-8.228042	-59.514222	16.036521	-0.495834	0.965594	-6.161060	-278.026953	0.000000	
-0.796829	-9.417635	-65.034009	23.956327	0.624085	0.437458	8.121424	-377.304084	0.000000	
2.829529	-8.715836	-61.073289	16.809635	-0.491573	0.872140	-6.236787	-284.057215	0.000000	
7.748401	-7.740860	-54.518908	7.598212	-1.979797	1.759779	-29.127026	-148.147753	0.000000	
10.192150	-7.493993	-51.241147	2.344975	-2.696921	2.283200	-42.259024	-54.782170	0.000000	
11.339864	-7.083901	-52.113227	1.139872	-3.031520	2.352656	-46.749935	-30.312786	0.000000	
9.353693	-7.591590	-53.486584	4.712884	-2.293381	2.208252	-33.852852	-96.889936	0.000000	
8.906041	-7.416313	-54.350158	5.186236	-2.139847	2.027635	-30.964712	-103.891703	0.000000	
8.640884	-7.378892	-54.000935	6.221039	-2.075920	2.065259	-30.251561	-123.682129	0.000000	
5.277518	-8.334301	-57.967565	11.082486	-1.271477	1.466476	-17.613403	-200.064094	0.000000	
0.707101	-8.874206	-62.616732	21.159737	-0.022417	0.692412	-0.511789	-346.689309	0.000000	
2.703711	-8.410476	-60.202101	17.026500	-0.371619	1.089897	-4.440385	-291.473758	0.000000	
7.663957	-7.652247	-54.343644	7.253760	-2.072773	1.831483	-31.016495	-142.193030	0.000000	
9.263363	-7.504742	-52.619558	4.541379	-2.355524	2.192227	-35.675000	-95.121064	0.000000	
10.721485	-7.313465	-51.590113	2.259498	-2.695773	2.336677	-41.380551	-52.563919	0.000000	
10.189470	-7.228221	-52.106118	2.646918	-2.755175	2.228034	-42.691461	-59.394853	0.000000	
8.549153	-7.557569	-52.962838	6.049008	-2.198449	1.995433	-33.239740	-123.031563	0.000000	
7.526365	-7.786477	-54.864300	7.942254	-1.827138	1.705439	-26.393195	-153.537666	0.000000	
6.953060	-7.749855	-55.032378	9.062560	-1.763131	1.705869	-25.736428	-173.391093	0.000000	
5.183702	-8.605132	-57.796184	12.288782	-1.145096	1.378175	-15.567709	-221.789389	0.000000	
5.844115	-8.202334	-56.586884	11.171100	-1.482259	1.452305	-21.187065	-206.360818	0.000000	
5.891054	-7.759986	-56.064032	10.870842	-1.363472	1.579474	-19.211571	-202.479418	0.000000	
7.136590	-7.877121	-56.418423	8.587197	-1.884908	1.773624	-27.099445	-160.852204	0.000000	
8.369258	-7.557968	-53.828986	6.479116	-2.105137	1.886287	-31.171585	-129.055659	0.000000	
7.797288	-7.739912	-54.344721	7.339487	-1.830176	1.867620	-26.414195	-143.858201	0.000000	
8.235659	-7.735014	-54.349104	6.693578	-2.073569	1.813281	-30.437888	-131.957166	0.000000	
8.192379	-7.514169	-54.347155	6.651053	-2.074056	1.849371	-30.492597	-130.951403	0.000000	
7.702996	-7.873131	-54.866193	7.726702	-1.888087	1.705150	-27.322552	-149.692310	0.000000	
6.823805	-7.703604	-55.723336	8.803171	-1.673436	1.722013	-23.947576	-166.549631	0.000000	
7.395993	-8.007772	-55.730089	8.242651	-1.855621	1.685310	-26.637756	-156.778035	0.000000	
7.880622	-7.518973	-54.172186	7.340663	-2.041521	1.796536	-30.310857	-144.106660	0.000000	
7.620802	-7.872995	-55.210216	7.683149	-1.828203	1.811838	-26.156088	-147.975629	0.000000	
7.308951	-8.231119	-55.383941	8.457843	-1.885490	1.703833	-27.426800	-161.864534	0.000000	
6.023654	-8.067636	-55.893832	10.611397	-1.273544	1.561437	-17.525656	-198.760601	0.000000	
6.375979	-7.708973	-55.548540	9.578763	-1.580022	1.579603	-22.791119	-181.039002	0.000000	
7.220629	-8.054057	-55.555480	8.414906	-1.825313	1.703650	-26.350568	-160.415561	0.000000	
7.670128	-7.608577	-54.687681	7.511985	-1.860211	1.974536	-26.933155	-145.980623	0.000000	
7.795035	-7.605790	-55.037487	7.296468	-2.011009	1.794277	-29.379565	-141.139306	0.000000	
8.063711	-7.649974	-53.826110	6.909575	-2.013561	1.940209	-29.790375	-137.155632	0.000000	
7.307109	-7.920503	-55.728936	8.458193	-1.733928	1.685726	-24.544112	-160.561078	0.000000	
8.633973	-7.643688	-53.485371	5.919255	-2.318891	1.886377	-35.085581	-119.501910	0.000000	
11.302819	-7.219353	-50.379679	0.795775	-2.914301	2.553391	-46.046029	-24.648649	0.000000	
2.389376	-9.076564	-60.898211	17.842896	-0.367323	0.872865	-4.617694	-302.170899	0.000000	
7.536726	-7.784822	-55.207836	7.596957	-1.738476	1.901499	-24.617369	-146.331137	0.000000	
7.046850	-8.011940	-55.726151	8.716485	-1.794308	1.757316	-25.890865	-165.296139	0.000000	
5.846593	-8.114169	-56.412359	11.128244	-1.392155	1.524566	-19.650477	-206.149348	0.000000	
7.625379	-7.961788	-55.036274	7.553860	-1.920027	1.901466	-27.900024	-146.182096	0.000000	
4.163090	-8.130950	-58.479055	14.443672	-0.653507	1.289636	-7.968116	-255.602977	0.000000	
9.883075	-7.453303	-52.104171	3.292278	-2.481065	2.264250	-37.762168	-72.025388	0.000000	
11.786634	-6.904144	-50.208856	-0.021860	-2.947072	2.571679	-46.312053	-8.092825	0.000000	
10.940442	-7.488567	-50.554413	1.656488	-2.728832	2.320483	-42.623106	-41.890542	0.000000	
8.730121	-7.863465	-54.004580	5.961104	-2.106876	2.028468	-30.730067	-119.364071	0.000000	
3.719384	-8.266595	-59.516442	15.175001	-0.680361	1.161949	-8.712465	-263.577630	0.000000	
-0.089790	-8.881186	-63.650359	22.580337	0.406433	0.583766	5.518856	-363.397515	0.000000	
-0.571686	-9.413146	-64.342208	22.750106	0.497406	0.527505	6.444712	-362.601197	0.000000	
0.133420	-9.230700	-64.000195	22.061948	0.374815	0.582020	5.186035	-353.622186	0.000000	
5.093523	-8.164225	-57.619951	12.462206	-0.933099	1.397505	-12.021511	-225.045716	0.000000	
9.789889	-7.541288	-53.491524	3.851381	-2.537515	2.100019	-37.956239	-80.722888	0.000000	
10.725060	-7.225977	-50.895736	2.044754	-2.697748	2.445732	-41.969234	-48.954238	0.000000	
10.855835	-7.309140	-52.283703	1.741794	-2.757643	2.334549	-41.881215	-41.970936	0.000000	
10.187434	-7.319648	-51.240960	2.949067	-2.694023	2.230319	-42.207790	-66.380705	0.000000	
9.874572	-7.410630	-51.240360	3.336279	-2.541471	2.123024	-39.573676	-74.037873	0.000000	
7.842565	-7.825917	-54.692004	6.951211	-1.982657	1.848233	-28.993009	-135.938802	0.000000	
6.599333	-8.238658	-55.552493	9.706586	-1.427684	1.615080	-19.821735	-183.862107	0.000000	
7.885195	-7.562863	-54.690538	7.555323	-1.798531	1.885289	-25.583352	-146.718569	0.000000	
7.180040	-7.831572	-55.553062	7.941341	-1.888367	1.775134	-27.527689	-151.673251	0.000000	
7.619173	-7.655753	-54.342785	8.158497	-1.675794	1.868605	-23.758117	-158.847594	0.000000	
6.733032	-8.012147	-57.110983	9.189340	-1.821451	1.575041	-26.065731	-169.587532	0.000000	
7.224723	-8.098885	-55.381326	8.371874	-1.856262	1.793551	-26.985640	-160.185849	0.000000	
6.379162	-8.106944	-57.281597	10.481410	-1.423317	1.575956	-19.386594	-191.734135	0.000000	
5.092693	-8.118546	-58.312891	12.375924	-1.174686	1.341836	-16.031758	-220.857531	0.000000	
6.023275	-7.892779	-56.065726	11.000134	-1.483500	1.579365	-21.219528	-204.912307	0.000000	
7.668436	-8.050787	-54.864182	7.640114	-1.980070	1.883879	-29.035418	-148.301240	0.000000	
8.861305	-7.551989	-53.137826	5.186941	-2.231753	2.048098	-33.430007	-106.399959	0.000000	
8.602321	-7.818372	-53.829206	5.443928	-2.140246	2.099969	-31.580748	-110.095589	0.000000	
12.183733	-7.211165	-49.694269	-0.495703	-3.251024	2.571926	-52.451538	1.020306	0.000000	
10.855262	-7.090519	-51.416274	1.829355	-2.758200	2.390767	-42.585968	-44.129711	0.000000	
3.404740	-8.665663	-59.864864	15.517876	-0.497072	0.963779	-5.899525	-268.149825	0.000000	
-4.037813	-9.715786	-67.786858	29.898125	1.735218	-0.173822	21.468569	-449.915548	0.000000	
10.368755	-7.269366	-52.107111	2.172571	-2.666268	2.281465	-40.791372	-50.334738	0.000000	
-10.549744	-11.021433	-76.063000	43.028908	3.450443	-1.242128	36.793441	-574.643766	0.000000	
11.125055	-7.262228	-51.591698	0.837936	-3.125006	2.442647	-49.260206	-24.952533	0.000000	
12.367489	-7.073737	-50.212708	-1.314478	-3.405532	2.695450	-54.789852	17.461069	0.000000	
10.321894	-7.449554	-52.454503	3.077144	-2.661837	2.227497	-40.492100	-67.444404	0.000000	
0.533651	-8.917061	-63.307796	21.115286	0.279855	0.708777	4.106118	-342.249579	0.000000	
-6.383787	-10.401075	-71.757951	34.546403	2.238318	-0.592824	25.413633	-490.375168	0.000000	
11.603110	-6.906834	-50.728902	0.710609	-3.034050	2.409713	-47.762907	-22.460057	0.000000	
-11.255761	-11.202800	-77.444412	43.975005	3.514753	-1.352662	36.441983	-576.755943	0.000000	
12.979062	-6.892012	-48.832600	-2.260838	-3.378750	2.662697	-55.064935	37.566014	0.000000	
11.030897	-7.135358	-50.898316	1.873084	-2.848741	2.409917	-44.596570	-45.479091	0.000000	
9.351883	-7.415557	-53.312791	4.713860	-2.505195	2.190785	-37.935592	-97.036180	0.000000	
5.887721	-8.070419	-56.413027	11.429866	-1.178807	1.489361	-15.827460	-211.450065	0.000000	
-6.028053	-10.442877	-71.067381	33.943838	2.084459	-0.502185	23.784122	-486.686531	0.000000	
9.784446	-7.322789	-52.278600	3.939055	-2.447235	2.067582	-37.097549	-84.019435	0.000000	
-9.570770	-10.920139	-74.509721	40.229446	3.135963	-1.025737	34.093430	-548.958188	0.000000	
12.807896	-7.026683	-49.003646	-2.002867	-3.348070	2.751829	-54.445379	32.013526	0.000000	
9.392080	-7.458822	-52.448315	4.240015	-2.477331	2.120705	-37.973622	-89.633932	0.000000	
9.973030	-7.143025	-51.583015	2.776688	-2.725849	2.336898	-42.783315	-62.412006	0.000000	
5.666192	-8.249031	-57.105475	11.902984	-1.267186	1.416007	-17.410385	-217.356416	0.000000	
-5.713941	-10.041128	-70.200004	32.911153	2.139733	-0.321121	25.126151	-477.658172	0.000000	
10.942350	-7.178511	-51.417882	1.743344	-3.000158	2.354519	-47.195340	-42.551588	0.000000	
-10.549044	-10.800044	-76.580791	43.287422	3.693824	-1.206678	39.717950	-573.977382	0.000000	
12.497593	-6.982415	-49.348359	-2.218671	-3.500492	2.660904	-57.512069	36.207625	0.000000	
11.074402	-7.086171	-51.938224	1.398045	-2.789104	2.335484	-42.524194	-35.385422	0.000000	
5.847703	-8.112556	-57.104856	11.170560	-1.240167	1.523129	-16.759090	-204.398705	0.000000	
7.575782	-7.873736	-55.210090	7.812445	-1.827677	1.794020	-26.192359	-150.318620	0.000000	
-1.510368	-9.472434	-65.722987	26.110161	0.935410	0.276478	12.155795	-406.175480	0.000000	
11.078663	-7.084727	-51.591014	0.751913	-2.974049	2.407130	-46.385286	-23.092398	0.000000	
-11.392609	-11.116599	-77.443890	44.492143	3.728708	-1.423542	39.105804	-583.374966	0.000000	
13.113359	-6.846332	-48.659635	-2.562235	-3.380089	2.716715	-55.130534	43.949085	0.000000	
10.761555	-7.134151	-51.244645	1.570808	-2.910377	2.247307	-45.798179	-39.277207	0.000000	
6.243415	-8.022941	-56.068460	10.698267	-1.544630	1.561040	-22.088510	-199.648698	0.000000	
9.173866	-7.593114	-52.966254	4.669999	-2.294191	2.137657	-34.383467	-97.025717	0.000000	
0.306004	-9.053907	-63.135639	21.718841	0.010241	0.547899	-0.353251	-352.861873	0.000000	
12.050955	-6.991333	-49.172518	-0.624179	-3.222240	2.591219	-52.565874	3.903351	0.000000	
-12.052993	-11.566208	-77.267932	45.352619	3.760982	-1.459205	39.134801	-596.164341	0.000000	
12.984551	-6.979994	-49.351117	-2.218323	-3.408753	2.750919	-55.096359	36.201256	0.000000	
11.347932	-7.304075	-51.073480	0.363907	-2.945630	2.515355	-45.995072	-15.962123	0.000000	
7.529693	-7.477597	-54.515023	7.728102	-1.980093	1.813899	-29.359571	-150.269942	0.000000	
8.678010	-7.468385	-52.617812	6.006251	-2.016920	1.960803	-29.865174	-122.925281	0.000000	
3.453343	-8.530146	-60.729369	15.130019	-0.770445	1.015024	-10.283337	-257.832325	0.000000	
12.098161	-6.989451	-50.211081	-0.495764	-3.130110	2.624842	-49.607278	1.250407	0.000000	
-12.401156	-11.567966	-78.302973	45.868485	3.974637	-1.407429	41.086171	-594.884082	0.000000	
13.019865	-6.981313	-48.314790	-2.217477	-3.408866	2.610091	-56.222600	36.976152	0.000000	
11.653759	-7.171033	-50.209750	0.106982	-3.188695	2.517307	-51.271995	-10.957011	0.000000	
6.953171	-8.102050	-56.593149	9.620491	-1.577561	1.630729	-21.769233	-178.839389	0.000000	
9.034671	-7.553319	-52.793249	5.532352	-2.260169	2.031437	-33.997062	-113.633255	0.000000	
9.355405	-7.855690	-52.968034	4.152122	-2.417263	2.208399	-36.513556	-87.523473	0.000000	
6.241228	-8.021778	-56.761910	10.827039	-1.543197	1.487863	-21.805195	-199.487044	0.000000	
-9.614124	-11.053636	-75.202461	40.788669	3.320392	-1.026860	36.192202	-551.444691	0.000000	
12.541198	-7.072368	-49.522220	-1.744757	-3.498106	2.660861	-57.215337	26.406012	0.000000	
11.923305	-7.122092	-50.210514	-0.797777	-3.343599	2.606076	-54.055100	7.117138	0.000000	
3.588073	-8.667633	-59.171043	15.562055	-0.679247	1.162462	-8.864404	-272.033019	0.000000	
8.509752	-7.599341	-53.655006	5.789413	-2.078398	2.047312	-30.624844	-116.660360	0.000000	
9.749560	-7.498987	-52.276893	3.593630	-2.449553	2.228181	-37.180514	-77.603667	0.000000	
-7.713357	-10.725012	-73.136359	37.301626	2.732881	-0.809232	30.662009	-519.069277	0.000000	
8.370044	-7.737198	-53.656233	6.995845	-1.921618	1.922971	-27.848317	-139.286338	0.000000	
5.184351	-8.430673	-56.755595	12.204097	-1.267622	1.452352	-17.996901	-224.176334	0.000000	
9.356109	-7.546158	-53.658993	4.454288	-2.355043	2.243417	-34.893237	-91.714481	0.000000	
1.455281	-8.597422	-62.102475	19.307518	0.091985	0.692862	2.008609	-319.478155	0.000000	
9.793011	-7.719281	-52.625280	3.593051	-2.630390	2.173115	-40.329571	-77.319162	0.000000	
9.834930	-7.277382	-52.623241	3.766514	-2.448128	2.192095	-36.822884	-80.147293	0.000000	
7.133316	-7.788855	-55.899210	8.544352	-1.643397	1.739377	-23.026650	-161.483646	0.000000	
9.569763	-7.677546	-52.797108	4.109892	-2.446862	2.119579	-36.962036	-86.815012	0.000000	
-10.633824	-11.066709	-76.407517	43.415933	3.784555	-1.152757	40.935017	-577.154926	0.000000	
0.175814	-9.185151	-63.308394	21.416152	0.159912	0.547060	1.894336	-347.236340	0.000000	
10.938972	-7.047232	-51.071479	1.916447	-2.999531	2.319880	-47.501550	-46.079899	0.000000	
12.587240	-7.071687	-50.041441	-1.572859	-3.375954	2.695792	-54.137211	22.689256	0.000000	
11.868874	-6.947189	-50.731106	0.150257	-3.035871	2.427192	-47.502830	-11.458231	0.000000	
7.400008	-7.699964	-55.553451	8.459075	-1.734437	1.829911	-24.534499	-160.858831	0.000000	
-5.851112	-10.173724	-71.586685	33.556171	2.174289	-0.485265	24.999398	-477.535595	0.000000	
11.520183	-7.083169	-50.208535	0.236004	-2.916103	2.499854	-45.993301	-13.428790	0.000000	
2.084598	-9.079174	-61.587344	18.359327	-0.305060	0.925330	-3.841541	-307.186569	0.000000	
10.903020	-7.134774	-51.415822	1.743303	-2.909993	2.462145	-45.486468	-42.504739	0.000000	
4.735530	-8.256672	-58.831375	13.538942	-1.139367	1.233851	-15.637698	-238.818671	0.000000	
7.218698	-7.835001	-55.207910	8.760486	-1.672913	1.723281	-23.752987	-167.457347	0.000000	
4.687347	-8.126293	-57.791973	13.669010	-0.867462	1.218991	-11.246665	-245.223289	0.000000	
7.224784	-7.964564	-55.380726	8.027235	-1.797317	1.793475	-25.921496	-153.828412	0.000000	
4.569672	-8.432747	-58.482145	12.848570	-1.113703	1.412785	-15.446663	-228.604031	0.000000	
-2.840322	-9.614399	-67.274476	27.788065	1.304526	0.004981	16.234800	-421.886544	0.000000	
-1.594626	-9.333929	-66.933523	25.290203	0.992968	0.272995	12.711008	-386.477802	0.000000	
8.815177	-7.863896	-53.139687	5.746451	-2.198878	1.994442	-32.858927	-117.254638	0.000000	
10.590172	-7.225903	-51.588331	2.259671	-2.726477	2.354600	-42.119951	-52.473830	0.000000	
11.167334	-6.997420	-51.244317	0.924900	-2.913048	2.462129	-45.406289	-26.523265	0.000000	
9.078862	-7.598355	-52.447335	5.575715	-2.290449	2.050148	-34.746162	-115.252331	0.000000	
5.670596	-8.067873	-58.662177	11.643506	-1.237003	1.448184	-16.450535	-207.013516	0.000000	
12.587843	-6.807623	-49.000464	-1.873013	-3.408707	2.769986	-55.938318	29.616430	0.000000	
2.526354	-8.941827	-60.897181	17.412327	-0.399579	0.980190	-5.021238	-294.981435	0.000000	
10.503390	-7.360262	-51.761087	2.603991	-2.725112	2.372185	-42.049696	-59.099150	0.000000	
8.553334	-7.599111	-54.001811	5.918664	-2.168087	2.028636	-32.048778	-118.309593	0.000000	
11.165941	-7.086574	-50.898796	1.010958	-2.791869	2.445118	-43.329936	-28.486850	0.000000	
10.013103	-7.186633	-52.623742	3.293074	-2.691882	2.227451	-41.264578	-71.053080	0.000000	
9.174047	-7.415142	-52.792073	4.368559	-2.205025	2.156049	-32.805115	-91.444068	0.000000	
0.887060	-8.914481	-62.790846	20.555957	0.035806	0.745271	0.575499	-336.150466	0.000000	
9.610863	-7.326152	-51.583453	4.154787	-2.296466	2.159055	-34.852864	-89.326594	0.000000	
-5.541422	-10.350764	-70.031057	33.083271	1.990025	-0.410623	23.189162	-481.514359	0.000000	
8.239546	-7.688864	-54.867501	6.434659	-2.104780	1.865572	-30.722610	-125.951917	0.000000	
4.388223	-8.438852	-57.962007	13.840475	-1.049480	1.361195	-14.645839	-247.767099	0.000000	
9.796449	-7.407915	-53.488899	3.549986	-2.539470	2.243243	-37.987743	-74.952177	0.000000	
6.423847	-8.018066	-56.242361	9.836070	-1.578307	1.613611	-22.441433	-183.699009	0.000000	
7.624076	-7.871745	-55.209495	7.338293	-1.860212	1.865210	-26.732866	-141.729966	0.000000	
5.622729	-8.118385	-56.411237	11.903933	-1.298352	1.471533	-18.210675	-219.908225	0.000000	
9.481864	-7.501749	-52.968349	4.282677	-2.476542	2.137426	-37.498535	-89.612814	0.000000	
-1.284886	-9.422502	-65.031004	24.645329	0.837822	0.366368	10.987421	-387.920648	0.000000	
7.840375	-7.563910	-53.997717	7.383475	-1.860477	1.886664	-27.095263	-145.409203	0.000000	
6.293071	-7.930392	-56.759902	10.051399	-1.607632	1.630516	-22.889923	-185.738456	0.000000	
11.254164	-7.129273	-51.073088	0.795447	-2.943600	2.426410	-46.058695	-24.219661	0.000000	
8.153658	-7.646158	-55.212019	6.822317	-2.012506	1.918984	-28.951848	-132.148912	0.000000	
9.430637	-7.324575	-53.315891	4.498386	-2.384102	1.993828	-35.579327	-92.893377	0.000000	
4.602055	-8.392805	-58.830946	14.357030	-0.773107	1.234762	-9.539471	-252.855969	0.000000	
8.331066	-7.866363	-54.002300	6.219338	-2.076298	1.956817	-30.579707	-124.154007	0.000000	
0.617013	-8.783644	-63.655331	21.287908	0.281513	0.618812	4.178922	-342.979685	0.000000	
7.712052	-7.695818	-54.169916	7.081135	-1.922688	1.921427	-28.292999	-139.504849	0.000000	
8.908283	-7.505246	-54.350053	5.186237	-2.291226	2.063169	-33.747713	-103.983734	0.000000	
9.482840	-7.325673	-52.620500	4.240353	-2.477254	2.192218	-37.753703	-89.207744	0.000000	
8.995361	-7.505558	-53.138229	4.799221	-2.263510	2.083671	-33.885839	-99.053691	0.000000	
7.614760	-7.830830	-55.211409	8.157754	-1.976883	1.704663	-28.854591	-156.525740	0.000000	
5.674504	-8.157460	-56.583565	10.825774	-1.242841	1.577575	-17.125230	-200.225437	0.000000	
7.221575	-7.743071	-56.246150	8.329147	-1.915987	1.720262	-27.647810	-156.620789	0.000000	
5.754121	-8.029220	-56.585002	11.990354	-1.267215	1.471466	-17.476624	-220.674275	0.000000	
7.182808	-8.054033	-54.514489	7.725944	-1.860195	1.848746	-27.517491	-150.825112	0.000000	
8.458682	-7.467468	-54.002154	6.134547	-2.197112	1.903547	-32.684405	-122.169743	0.000000	
9.569514	-7.282031	-52.274774	4.327023	-2.446656	2.193286	-37.319822	-91.403476	0.000000	
7.666733	-7.916569	-55.556733	7.639971	-2.009548	1.828658	-29.215606	-146.324561	0.000000	
6.998704	-7.925136	-54.687214	8.674111	-1.613835	1.724205	-23.117069	-167.557063	0.000000	
7.041947	-7.969020	-55.380708	8.975364	-1.672149	1.686874	-23.846606	-170.953185	0.000000	
5.361063	-8.338855	-57.276008	11.945270	-1.177124	1.451218	-16.087397	-217.537944	0.000000	
7.879632	-7.520366	-53.479521	7.427111	-1.830036	1.816408	-26.739781	-147.580529	0.000000	
5.936103	-8.243497	-57.279620	10.997670	-1.240460	1.504494	-16.628879	-200.887466	0.000000	
7.794381	-7.652171	-54.518096	7.555354	-1.949850	1.813679	-28.530817	-147.272543	0.000000	
8.279736	-7.690433	-54.695465	6.822812	-2.072593	1.812685	-30.187073	-133.443747	0.000000	
8.280638	-7.690167	-54.522110	6.650545	-2.103823	1.830807	-30.852423	-130.705604	0.000000	
8.597946	-7.510309	-53.308818	5.531490	-2.170407	2.065889	-32.451731	-112.480689	0.000000	
7.887502	-7.871933	-54.692024	7.339265	-2.041443	1.884347	-30.021761	-143.081221	0.000000	
5.046773	-8.120247	-57.793416	12.462572	-1.205018	1.325175	-16.738182	-224.336317	0.000000	
8.772866	-7.686493	-53.830968	5.918623	-2.076852	2.029166	-30.224339	-118.772802	0.000000	
7.134279	-7.922137	-55.899792	8.544415	-1.915612	1.738884	-27.895155	-161.616880	0.000000	
7.444612	-7.832706	-54.861784	8.200616	-1.736085	1.849044	-24.818312	-158.301258	0.000000	
7.134407	-7.833550	-55.726024	8.458433	-1.825476	1.757355	-26.362073	-160.486170	0.000000	
7.526260	-7.700867	-53.997515	8.115669	-1.827299	1.761599	-26.807320	-159.111828	0.000000	
6.652235	-8.060594	-55.895690	9.362315	-1.641315	1.793195	-23.473724	-176.400280	0.000000	
8.110564	-7.737049	-53.999539	6.693713	-2.044646	1.975280	-30.224207	-132.810739	0.000000	
7.045894	-7.878849	-55.379314	8.501419	-1.704818	1.758222	-24.433098	-162.307941	0.000000	
7.802996	-7.869201	-55.729781	7.122678	-1.981396	1.899588	-28.485001	-136.542892	0.000000	
8.057210	-7.429953	-53.480050	7.125837	-1.891536	1.852131	-27.703176	-141.850830	0.000000	
7.797396	-7.738297	-55.037653	7.252938	-1.981091	1.829897	-28.833472	-140.483045	0.000000	
7.532931	-7.786878	-55.554962	8.200511	-1.886446	1.829451	-27.135789	-156.288045	0.000000	
7.841688	-7.740452	-53.998571	7.253826	-1.982027	1.886139	-29.344466	-143.189383	0.000000	
7.223811	-7.921477	-55.726912	8.372238	-1.946668	1.774983	-28.446394	-159.025430	0.000000	
7.352224	-7.921817	-55.036081	8.415738	-1.765025	1.741127	-25.362225	-161.802100	0.000000	
7.357892	-8.009485	-55.727725	8.501132	-1.734201	1.829046	-24.498400	-161.424652	0.000000	
7.265108	-7.746023	-55.207080	8.588479	-1.764532	1.776923	-25.365722	-164.253751	0.000000	
7.487893	-7.875332	-55.901776	8.415310	-1.764183	1.792979	-24.830425	-159.254696	0.000000	
7.132687	-8.013704	-54.515050	8.588395	-1.916601	1.759994	-28.603506	-166.602476	0.000000	
7.795531	-7.785791	-54.518465	7.727538	-2.009639	1.831500	-29.626115	-150.567346	0.000000	
7.836277	-7.741040	-54.173168	7.598483	-1.919407	1.778643	-28.102107	-149.093250	0.000000	
8.064624	-7.603441	-53.999075	6.521384	-1.924412	1.939578	-28.045602	-129.481719	0.000000	
7.665332	-7.787154	-54.516677	7.985621	-1.706608	1.885737	-24.202570	-155.307671	0.000000	
6.860863	-8.014715	-56.246755	9.664031	-1.577606	1.560003	-21.991332	-180.622742	0.000000	
7.479519	-7.743022	-54.518028	8.028543	-1.645526	1.670747	-23.272822	-156.045736	0.000000	
8.909199	-7.642304	-53.830321	5.962064	-2.106987	2.136828	-30.642394	-119.535162	0.000000	
8.193511	-7.824473	-54.521779	6.951743	-2.012047	1.848858	-29.258970	-136.368971	0.000000	
6.686835	-7.972351	-56.244344	9.879373	-1.456381	1.614037	-20.010533	-184.416877	0.000000	
6.646987	-7.926578	-56.416113	9.362392	-1.731129	1.666601	-24.861652	-174.648615	0.000000	
8.016214	-7.741217	-54.519535	7.857279	-2.038841	1.867648	-29.934057	-152.898247	0.000000	
8.064589	-7.912460	-54.520652	6.649618	-2.044155	1.884131	-29.981139	-130.920846	0.000000	
7.086077	-7.965794	-56.593623	8.888291	-1.731704	1.630132	-24.360976	-165.764969	0.000000	
7.132216	-7.791253	-55.726020	8.932716	-1.762797	1.740042	-25.239504	-168.954587	0.000000	
8.466399	-7.687664	-54.520869	6.133338	-2.076206	2.027520	-30.155385	-121.219568	0.000000	
9.125480	-7.416723	-52.966015	4.799735	-2.263209	2.066392	-33.849939	-99.288722	0.000000	
7.576270	-7.918396	-54.517597	7.511273	-1.950640	1.813082	-28.770036	-146.739320	0.000000	
5.628184	-8.114704	-57.276096	11.386021	-1.390928	1.522614	-19.558552	-207.553949	0.000000	
5.671253	-8.072004	-57.102879	11.774071	-1.207807	1.541619	-16.366315	-214.934749	0.000000	
6.822288	-7.968893	-56.071827	8.974780	-1.793055	1.649115	-25.938460	-168.845549	0.000000	
7.354041	-7.834488	-53.995954	8.029050	-1.919136	1.814838	-28.687840	-157.651078	0.000000	
8.370864	-7.514442	-53.481799	6.436368	-2.075589	1.940912	-30.814655	-129.043199	0.000000	
8.816182	-7.727961	-53.659193	5.186159	-2.352133	1.974775	-35.403452	-105.543485	0.000000	
8.509410	-7.511145	-53.654546	5.789809	-2.169149	2.047347	-32.316851	-116.576508	0.000000	
6.690620	-8.191377	-55.725629	9.060289	-1.642064	1.649759	-23.517751	-171.647933	0.000000	
6.068282	-8.286877	-56.934671	10.696491	-1.453439	1.504814	-20.335353	-196.852504	0.000000	
6.382527	-7.841477	-57.452145	10.395909	-1.484456	1.665372	-20.392266	-189.419911	0.000000	
7.003908	-8.010948	-56.245151	8.715927	-1.733520	1.756118	-24.621281	-163.767475	0.000000	
8.504765	-7.600144	-53.483135	6.005008	-2.016708	1.958424	-29.572507	-121.064565	0.000000	
8.956070	-7.637717	-54.176966	5.056716	-2.292104	2.134944	-33.819726	-102.059838	0.000000	
8.235741	-7.515600	-53.827914	6.780812	-2.043600	1.868710	-30.168146	-134.618876	0.000000	
7.579440	-7.915952	-55.902280	7.639363	-1.858281	1.827938	-26.421575	-145.413626	0.000000	
7.087530	-7.965845	-56.420025	8.802160	-1.702130	1.666321	-23.907882	-164.745958	0.000000	
6.866754	-7.881575	-55.724811	9.190546	-1.550501	1.704321	-21.697595	-173.676016	0.000000	
6.868574	-7.968830	-55.725032	8.931564	-1.521473	1.721936	-21.174764	-169.115683	0.000000	
7.393540	-7.788058	-55.382784	8.458884	-1.703723	1.686842	-24.059640	-161.437824	0.000000	
7.708112	-7.741690	-54.517319	7.727289	-1.828482	1.849616	-26.393761	-150.520527	0.000000	
7.622064	-7.829549	-55.382589	7.898716	-1.827257	1.847539	-26.058763	-151.365902	0.000000	
7.747558	-7.873714	-54.173611	7.554850	-1.889438	1.742540	-27.640580	-148.424029	0.000000	
7.267875	-7.833514	-54.514373	8.028259	-1.737556	1.831655	-25.180343	-156.144061	0.000000	
7.748852	-7.740677	-55.211364	7.942378	-1.856713	1.758608	-26.541795	-152.533310	0.000000	
7.311682	-7.922442	-54.342046	8.114420	-1.737178	1.832049	-25.205512	-158.313991	0.000000	
7.621325	-7.695995	-54.862644	7.468313	-1.799361	1.848576	-25.790563	-144.811053	0.000000	
7.752299	-7.698261	-53.997640	7.727735	-1.738186	1.886875	-24.922075	-151.924478	0.000000	
7.351045	-7.968277	-53.304886	7.986202	-1.980144	1.762427	-30.197216	-159.021390	0.000000	
7.440950	-7.922147	-54.690082	8.416062	-1.734957	1.777874	-24.876875	-162.826856	0.000000	
7.174485	-7.658425	-54.687088	8.459708	-1.765635	1.742267	-25.712565	-163.363270	0.000000	
7.041152	-7.745210	-55.033715	8.200251	-1.706080	1.669311	-24.609360	-157.713409	0.000000	
7.794558	-7.697032	-54.518099	7.813530	-1.706787	1.832046	-24.072248	-152.054317	0.000000	
6.915331	-7.926187	-55.031432	8.846322	-1.673906	1.813004	-24.153973	-169.644476	0.000000	
6.917824	-7.923737	-56.070107	8.716339	-1.794636	1.810281	-25.871826	-164.196273	0.000000	
7.441554	-7.787211	-55.555254	8.286492	-1.795269	1.757911	-25.586746	-157.835234	0.000000	
7.000329	-7.923852	-55.899178	8.802965	-1.914683	1.703160	-28.013285	-166.245660	0.000000	
7.528835	-7.744579	-54.343455	8.115323	-1.857413	1.796509	-27.193168	-158.142884	0.000000	
7.801584	-7.782236	-55.556209	7.381706	-1.950144	1.900421	-28.010419	-141.541561	0.000000	
6.555013	-8.060013	-56.244189	9.491247	-1.639812	1.577399	-23.403413	-177.604101	0.000000	
7.092428	-7.749533	-54.338549	8.675205	-1.735544	1.886463	-25.403406	-168.465799	0.000000	
7.665981	-7.961119	-56.076549	8.070278	-1.825644	1.810067	-25.673323	-152.693853	0.000000	
6.645722	-8.016529	-55.724110	9.448732	-1.610304	1.668327	-22.993611	-178.447366	0.000000	
7.397771	-7.832542	-54.862401	8.114522	-1.857285	1.777135	-27.075111	-156.730064	0.000000	
7.751410	-7.561218	-55.556266	7.468397	-1.888961	1.793382	-26.959794	-142.878610	0.000000	
7.705882	-7.828638	-54.518786	7.468336	-1.829327	1.777565	-26.410877	-145.856189	0.000000	
8.153094	-7.737695	-54.692791	7.210664	-2.102004	1.938285	-30.856178	-140.590189	0.000000	
7.311128	-7.701260	-54.167797	7.856935	-2.010720	1.832243	-30.334520	-153.838074	0.000000	
7.888534	-7.870719	-54.518723	7.037411	-1.922012	1.902505	-27.922987	-137.995507	0.000000	
6.731419	-7.839310	-56.590016	9.965796	-1.485929	1.631415	-20.371035	-184.690612	0.000000	
6.999298	-7.969693	-55.206736	8.975419	-1.642315	1.723173	-23.422215	-171.491024	0.000000	
6.602765	-8.193460	-56.417279	9.706462	-1.699369	1.648630	-24.342186	-181.009112	0.000000	
6.245270	-8.109352	-56.415152	10.395985	-1.575935	1.559753	-22.510675	-193.154562	0.000000	
5.892305	-8.333986	-56.933180	11.213280	-1.270217	1.523248	-17.291094	-205.981174	0.000000	
6.955379	-7.834025	-56.418256	8.759486	-1.823698	1.666255	-26.194806	-163.863613	0.000000	
8.019370	-7.651133	-54.171963	7.340205	-1.890495	1.939915	-27.379373	-144.235681	0.000000	
7.664166	-7.740282	-55.036783	7.554606	-1.980045	1.812188	-28.950732	-145.968493	0.000000	
8.059901	-7.738412	-54.866683	7.512023	-1.979330	1.830750	-28.620326	-145.640474	0.000000	
8.195271	-7.690037	-54.520691	6.563949	-1.923196	1.884602	-27.628049	-129.120540	0.000000	
7.751627	-7.917641	-55.557955	8.114017	-1.825550	1.793555	-25.817433	-154.854911	0.000000	
6.733146	-7.750621	-55.550164	9.277351	-1.671557	1.686879	-24.077519	-175.649856	0.000000	
6.824941	-7.924848	-56.417066	9.104031	-1.822676	1.702202	-26.306944	-170.064478	0.000000	
6.681827	-8.018222	-55.206876	9.836952	-1.457107	1.544730	-20.390008	-187.145443	0.000000	
5.850427	-8.068301	-56.411206	10.740208	-1.303445	1.596008	-18.074488	-199.229213	0.000000	
6.600607	-7.925139	-57.282381	9.619839	-1.426629	1.593438	-19.227247	-176.512671	0.000000	
7.083945	-7.967115	-56.247651	9.103943	-1.609957	1.613383	-22.343620	-170.614860	0.000000	
7.143236	-8.096623	-56.244971	8.112328	-1.796846	1.880822	-25.608272	-153.121843	0.000000	
7.484103	-7.698266	-55.555455	8.286635	-1.704336	1.740258	-23.906877	-157.747414	0.000000	
6.780487	-7.748899	-55.896048	9.104523	-1.581404	1.739817	-22.273013	-171.474297	0.000000	
7.660099	-7.649751	-55.730337	7.554131	-1.888304	1.703228	-26.958188	-144.062383	0.000000	
7.791522	-7.739795	-54.519571	7.511779	-1.828745	1.741972	-26.311689	-146.559504	0.000000	
7.976935	-7.736364	-54.172357	6.563943	-1.954490	1.921000	-28.604459	-129.993436	0.000000	
7.400626	-7.743809	-55.553659	8.329752	-1.825752	1.829618	-26.177511	-158.574628	0.000000	
8.461713	-7.600024	-53.828963	6.004930	-2.167792	1.957409	-32.239184	-120.290431	0.000000	
7.576508	-7.785227	-55.036264	7.597558	-2.010345	1.812070	-29.590916	-146.796111	0.000000	
7.756330	-7.782464	-55.556139	7.510662	-1.737884	1.882831	-24.235527	-143.863148	0.000000	
8.108100	-7.912587	-54.521024	6.778859	-1.952711	1.884388	-28.258944	-133.290564	0.000000	
7.486075	-7.655412	-54.515533	7.942985	-1.888498	1.813913	-27.724022	-154.393244	0.000000	
6.601517	-8.016932	-55.723762	9.534772	-1.519301	1.668480	-21.405161	-179.992924	0.000000	
5.579856	-8.203385	-57.277636	11.429014	-1.511394	1.414870	-21.708579	-208.385862	0.000000	
8.325100	-7.516955	-53.654736	7.039785	-2.072809	1.923153	-30.713922	-139.878829	0.000000	
6.510206	-8.282709	-56.245168	9.921428	-1.456434	1.559743	-20.187387	-185.471499	0.000000	
7.128914	-7.834538	-55.034824	8.458920	-1.795412	1.669398	-26.142600	-162.501428	0.000000	
7.622000	-7.695540	-55.035737	7.382140	-1.920597	1.847949	-27.914080	-142.791931	0.000000	
7.398579	-8.052269	-56.595335	8.672985	-1.853149	1.719504	-26.196290	-162.041399	0.000000	
3.768269	-8.489126	-58.650790	14.959856	-0.863807	1.270783	-11.910435	-264.000544	0.000000	
7.531134	-7.697804	-55.728159	8.200517	-1.825670	1.793408	-25.965139	-155.715272	0.000000	
-4.701792	-9.855604	-68.129448	30.974755	1.769067	-0.263783	21.306652	-463.575086	0.000000	
12.580566	-6.853548	-49.002436	-1.226885	-3.133069	2.645446	-50.319452	16.376998	0.000000	
10.724899	-7.401568	-52.628686	2.603435	-2.754035	2.370187	-41.682900	-58.171766	0.000000	
7.617962	-7.872906	-54.864751	7.554071	-1.828834	1.758785	-26.330230	-146.549526	0.000000	
-5.541006	-10.129924	-69.856352	32.997863	1.959084	-0.374166	22.806527	-481.316547	0.000000	
11.074307	-7.220285	-51.246185	1.441199	-2.698789	2.354983	-41.325544	-36.841211	0.000000	
-12.009093	-11.611090	-78.134073	46.084400	4.007055	-1.460307	41.873138	-598.962622	0.000000	
12.758662	-6.761587	-49.176322	-1.872926	-3.377377	2.662306	-54.909110	29.558377	0.000000	
8.550488	-7.688909	-53.136643	5.875938	-2.138571	1.994717	-32.005306	-119.513415	0.000000	
12.185047	-7.033027	-49.346707	-1.012194	-3.314270	2.608267	-54.095593	11.702344	0.000000	
4.292525	-8.839329	-59.177716	15.174457	-0.830204	1.162142	-10.746493	-265.615510	0.000000	
2.924577	-8.539355	-60.204860	16.422879	-0.464342	1.071240	-5.774500	-281.554431	0.000000	
8.020280	-7.915305	-53.827315	6.908729	-1.983338	1.921895	-29.273521	-137.413439	0.000000	
-9.311704	-10.610254	-73.991535	40.274007	3.197100	-1.059576	35.360430	-553.164270	0.000000	
9.083816	-7.327819	-52.618269	4.412250	-2.295822	2.120645	-34.732673	-92.480644	0.000000	
9.829179	-7.232521	-52.451648	3.594488	-2.569507	2.066863	-39.261037	-77.079121	0.000000	
11.655153	-7.079721	-50.901836	-0.152206	-3.068309	2.515672	-48.218976	-5.626519	0.000000	
6.999788	-7.922575	-56.765265	9.017640	-1.791886	1.665620	-25.435178	-167.502142	0.000000	
3.722240	-8.576666	-60.036825	15.647587	-0.435969	1.196812	-4.570403	-269.461440	0.000000	
-2.790334	-9.569781	-66.753503	27.228675	0.998732	0.130837	11.828715	-416.755355	0.000000	
2.434949	-8.897922	-61.936137	17.971904	-0.335629	0.888774	-4.000510	-299.041832	0.000000	
