NO_OF_FRAMES	1200
NO_OF_CAMERAS	12
NO_OF_MARKERS	9
FREQUENCY	240
NO_OF_ANALOG	0
ANALOG_FREQUENCY	0
DESCRIPTION	--
TIME_STAMP	2020-02-08, 11:50:02	228080.26681630
DATA_INCLUDED	3D
MARKER_NAMES	ASISL	ASISR	medialKnee	lateralKnee	medialMalleolus	lateralMalleolus	heel	toe	sacral
ASISL X	ASISL Y	ASISL Z	ASISR X	ASISR Y	ASISR Z	medialKnee X	medialKnee Y	medialKnee Z	lateralKnee X	lateralKnee Y	lateralKnee Z	medialMalleolus X	medialMalleolus Y	medialMalleolus Z	lateralMalleolus X	lateralMalleolus Y	lateralMalleolus Z	heel X	heel Y	heel Z	toe X	toe Y	toe Z	sacral X	sacral Y	sacral Z	
-2921.547	822.284	1050.213	-2932.850	542.744	1049.858	-2957.363	659.181	546.600	0.000	0.000	0.000	-3055.815	650.186	135.681	0.000	0.000	0.000	0.000	0.000	0.000	-2834.224	607.633	73.717	-3139.429	692.505	1078.152
-2921.177	822.413	1050.306	-2928.089	544.670	1048.050	-2965.025	662.266	546.945	0.000	0.000	0.000	-3055.782	650.297	135.699	0.000	0.000	0.000	0.000	0.000	0.000	-2834.189	607.648	73.682	-3144.783	690.241	1079.064
-2920.844	822.582	1050.216	-2932.068	543.089	1049.866	-2957.202	659.502	546.541	0.000	0.000	0.000	-3055.742	650.239	135.734	0.000	0.000	0.000	0.000	0.000	0.000	-2834.146	607.673	73.677	-3144.410	690.395	1079.159
-2920.438	822.744	1050.256	-2931.571	543.289	1049.925	-2957.117	659.659	546.511	0.000	0.000	0.000	-3052.813	648.743	134.298	0.000	0.000	0.000	0.000	0.000	0.000	-2834.192	607.645	73.644	-3139.560	691.603	1078.476
-2920.135	822.996	1050.234	-2931.148	543.474	1049.986	-2957.082	659.828	546.483	0.000	0.000	0.000	-3052.736	648.736	134.445	0.000	0.000	0.000	0.000	0.000	0.000	-2834.160	607.662	73.683	-3139.200	691.729	1078.528
-2919.790	823.137	1050.266	-2930.702	543.706	1050.059	-2956.998	659.983	546.483	0.000	0.000	0.000	-3052.741	648.809	134.394	0.000	0.000	0.000	0.000	0.000	0.000	-2834.153	607.694	73.659	-3138.834	691.874	1078.638
-2919.371	823.313	1050.246	-2930.385	543.873	1050.056	-2956.820	660.140	546.501	0.000	0.000	0.000	-3052.799	648.826	134.432	0.000	0.000	0.000	0.000	0.000	0.000	-2834.199	607.717	73.613	-3138.490	692.032	1078.759
-2919.055	823.470	1050.288	-2930.069	544.088	1050.065	-2956.758	660.251	546.455	0.000	0.000	0.000	-3052.778	648.818	134.484	0.000	0.000	0.000	0.000	0.000	0.000	-2834.149	607.720	73.687	-3138.162	692.232	1078.863
-2919.658	822.874	1053.983	-2930.079	543.142	1053.756	-2960.195	661.344	547.404	0.000	0.000	0.000	-3055.651	650.420	135.886	0.000	0.000	0.000	0.000	0.000	0.000	-2836.789	608.496	73.716	-3137.845	692.348	1078.973
-2919.365	823.071	1053.957	-2929.473	543.217	1053.847	-2960.379	661.631	547.322	0.000	0.000	0.000	-3050.107	648.471	131.170	0.000	0.000	0.000	0.000	0.000	0.000	-2836.785	608.517	73.716	-3137.466	692.485	1079.034
-2918.454	823.714	1051.656	-2928.756	544.164	1051.446	-2957.011	660.832	546.822	0.000	0.000	0.000	-3050.109	648.458	131.214	0.000	0.000	0.000	0.000	0.000	0.000	-2835.404	608.253	73.753	-3137.125	692.623	1079.095
-2918.283	823.915	1051.663	-2928.276	544.298	1051.460	-2957.031	660.943	546.754	0.000	0.000	0.000	-3050.070	648.576	131.223	0.000	0.000	0.000	0.000	0.000	0.000	-2835.435	608.231	73.793	-3136.738	692.744	1079.137
-2917.858	824.054	1051.731	-2927.855	544.526	1051.609	-2956.810	661.033	546.797	0.000	0.000	0.000	-3050.089	648.586	131.240	0.000	0.000	0.000	0.000	0.000	0.000	-2835.353	608.259	73.750	-3136.420	692.881	1079.229
-2917.455	824.170	1051.731	-2927.639	544.771	1051.619	-2957.453	661.493	546.261	0.000	0.000	0.000	-3050.038	648.141	131.602	0.000	0.000	0.000	0.000	0.000	0.000	-2835.540	608.339	73.692	-3135.112	694.064	1079.321
-2917.064	824.296	1051.736	-2927.280	544.928	1051.634	-2957.422	661.590	546.283	0.000	0.000	0.000	-3049.988	648.155	131.590	0.000	0.000	0.000	0.000	0.000	0.000	-2835.567	608.334	73.697	-3134.839	694.262	1079.414
-2916.702	824.430	1051.741	-2926.885	545.143	1051.717	-2957.352	661.679	546.234	0.000	0.000	0.000	-3050.007	648.148	131.618	0.000	0.000	0.000	0.000	0.000	0.000	-2835.561	608.319	73.719	-3134.581	694.440	1079.496
-2916.387	824.565	1051.740	-2927.006	545.548	1051.207	-2956.818	661.586	546.677	0.000	0.000	0.000	-3050.013	648.179	131.628	0.000	0.000	0.000	0.000	0.000	0.000	-2835.543	608.341	73.726	-3134.298	694.609	1079.563
-2916.136	824.699	1051.727	-2926.621	545.762	1051.235	-2956.675	661.671	546.658	0.000	0.000	0.000	-3049.967	648.186	131.724	0.000	0.000	0.000	0.000	0.000	0.000	-2835.603	608.360	73.688	-3134.016	694.778	1079.646
-2915.968	824.827	1051.698	-2924.694	546.601	1051.222	-2956.669	661.820	546.657	0.000	0.000	0.000	-3049.934	648.218	131.687	0.000	0.000	0.000	0.000	0.000	0.000	-2835.532	608.383	73.674	-3133.733	694.926	1079.690
-2915.712	824.970	1051.599	-2924.435	546.786	1051.328	-2956.567	661.909	546.684	0.000	0.000	0.000	-3049.900	648.189	131.733	0.000	0.000	0.000	0.000	0.000	0.000	-2835.461	608.380	73.723	-3133.431	695.081	1079.776
-2915.416	825.120	1051.468	-2924.196	546.797	1051.424	-2956.565	662.039	546.640	0.000	0.000	0.000	-3049.839	648.229	131.746	0.000	0.000	0.000	0.000	0.000	0.000	-2835.533	608.393	73.652	-3133.161	695.255	1079.844
-2915.127	825.266	1051.339	-2923.958	547.077	1051.372	-2956.504	662.196	546.668	0.000	0.000	0.000	-3049.773	648.221	131.797	0.000	0.000	0.000	0.000	0.000	0.000	-2835.478	608.419	73.675	-3132.918	695.454	1079.948
-2914.894	825.400	1051.249	-2923.712	547.234	1051.452	-2956.390	662.254	546.701	0.000	0.000	0.000	-3049.842	648.196	131.840	0.000	0.000	0.000	0.000	0.000	0.000	-2835.435	608.428	73.686	-3132.707	695.651	1079.996
-2914.578	825.512	1051.242	-2923.508	547.402	1051.453	-2956.462	662.419	546.656	0.000	0.000	0.000	-3049.758	648.190	131.867	0.000	0.000	0.000	0.000	0.000	0.000	-2835.521	608.462	73.705	-3134.333	694.587	1080.095
-2914.591	825.563	1051.472	-2924.964	546.882	1051.433	-2956.300	662.476	546.681	0.000	0.000	0.000	-3049.780	648.257	131.871	0.000	0.000	0.000	0.000	0.000	0.000	-2835.491	608.448	73.641	-3134.254	694.780	1080.224
-2914.203	825.636	1051.375	-2924.907	547.170	1051.726	-2956.326	662.567	546.686	0.000	0.000	0.000	-3049.664	648.203	131.959	0.000	0.000	0.000	0.000	0.000	0.000	-2835.408	608.458	73.668	-3134.119	694.954	1080.292
-2913.850	825.708	1051.390	-2924.788	547.272	1051.808	-2956.211	662.623	546.682	0.000	0.000	0.000	-3049.719	648.234	132.004	0.000	0.000	0.000	0.000	0.000	0.000	-2835.450	608.437	73.645	-3133.963	695.097	1080.361
-2913.543	825.782	1051.477	-2924.737	547.381	1051.844	-2956.153	662.735	546.687	0.000	0.000	0.000	-3049.690	648.246	132.052	0.000	0.000	0.000	0.000	0.000	0.000	-2835.604	608.537	73.521	-3133.811	695.289	1080.385
-2913.291	825.861	1051.595	-2924.543	547.502	1051.915	-2956.123	662.791	546.721	0.000	0.000	0.000	-3049.595	648.252	132.082	0.000	0.000	0.000	0.000	0.000	0.000	-2835.344	608.429	73.503	-3133.649	695.448	1080.465
-2913.105	825.946	1051.703	-2924.525	547.555	1051.970	-2955.967	662.907	546.799	0.000	0.000	0.000	-3049.614	648.269	132.125	0.000	0.000	0.000	0.000	0.000	0.000	-2835.445	608.505	73.475	-3133.545	695.668	1080.523
-2912.993	826.041	1051.759	-2924.354	547.646	1052.093	-2955.949	662.964	546.750	0.000	0.000	0.000	-3049.602	648.292	132.153	0.000	0.000	0.000	0.000	0.000	0.000	-2835.291	608.489	73.507	-3133.472	695.853	1080.572
-2912.752	826.162	1051.689	-2924.329	547.701	1052.062	-2955.767	663.017	546.839	0.000	0.000	0.000	-3049.537	648.292	132.199	0.000	0.000	0.000	0.000	0.000	0.000	-2835.341	608.497	73.423	-3133.386	696.079	1080.640
-2912.534	826.194	1051.731	-2924.209	547.733	1052.172	-2955.669	663.144	546.802	0.000	0.000	0.000	-3049.472	648.287	132.248	0.000	0.000	0.000	0.000	0.000	0.000	-2835.360	608.510	73.448	-3133.326	696.295	1080.711
-2912.263	826.284	1051.762	-2924.194	547.828	1052.212	-2955.534	663.160	546.847	0.000	0.000	0.000	-3049.491	648.290	132.269	0.000	0.000	0.000	0.000	0.000	0.000	-2835.269	608.560	73.411	-3133.258	696.516	1080.725
-2912.123	826.299	1051.814	-2924.126	547.883	1052.052	-2955.438	663.230	546.912	0.000	0.000	0.000	-3049.475	648.268	132.332	0.000	0.000	0.000	0.000	0.000	0.000	-2835.322	608.540	73.399	-3133.161	696.722	1080.793
-2911.905	826.374	1051.738	-2924.070	547.962	1052.078	-2955.324	663.279	546.842	0.000	0.000	0.000	-3049.428	648.280	132.357	0.000	0.000	0.000	0.000	0.000	0.000	-2835.260	608.531	73.415	-3133.053	696.916	1080.769
-2911.791	826.494	1051.724	-2924.105	547.984	1052.089	-2955.165	663.306	546.939	0.000	0.000	0.000	-3049.433	648.319	132.361	0.000	0.000	0.000	0.000	0.000	0.000	-2835.406	608.506	73.386	-3132.959	697.102	1080.785
-2911.612	826.529	1051.825	-2924.128	548.075	1052.361	-2955.118	663.307	546.948	0.000	0.000	0.000	-3049.349	648.314	132.386	0.000	0.000	0.000	0.000	0.000	0.000	-2835.435	608.536	73.335	-3132.876	697.274	1080.779
-2911.472	826.652	1051.755	-2924.175	548.148	1052.357	-2954.995	663.362	546.919	0.000	0.000	0.000	-3049.345	648.271	132.421	0.000	0.000	0.000	0.000	0.000	0.000	-2835.313	608.533	73.343	-3132.856	697.530	1080.820
-2911.372	826.713	1051.755	-2924.179	548.165	1052.423	-2954.924	663.414	546.956	0.000	0.000	0.000	-3049.302	648.320	132.383	0.000	0.000	0.000	0.000	0.000	0.000	-2835.418	608.504	73.365	-3132.851	697.765	1080.873
-2911.243	826.782	1051.683	-2924.252	548.218	1052.485	-2954.938	663.505	546.938	0.000	0.000	0.000	-3049.233	648.267	132.470	0.000	0.000	0.000	0.000	0.000	0.000	-2835.427	608.540	73.367	-3132.861	698.002	1080.899
-2911.175	826.853	1051.712	-2924.309	548.346	1052.551	-2954.861	663.499	547.002	0.000	0.000	0.000	-3049.269	648.285	132.468	0.000	0.000	0.000	0.000	0.000	0.000	-2835.295	608.481	73.381	-3132.868	698.240	1080.935
-2910.942	826.903	1051.747	-2924.257	548.470	1052.651	-2954.774	663.570	547.029	0.000	0.000	0.000	-3049.257	648.322	132.518	0.000	0.000	0.000	0.000	0.000	0.000	-2835.452	608.540	73.355	-3132.873	698.447	1080.980
-2910.790	827.062	1051.730	-2924.335	548.436	1052.593	-2954.579	663.554	547.038	0.000	0.000	0.000	-3049.254	648.264	132.531	0.000	0.000	0.000	0.000	0.000	0.000	-2835.270	608.492	73.399	-3132.814	698.672	1080.931
-2910.641	827.130	1051.794	-2924.331	548.563	1052.737	-2954.640	663.613	547.051	0.000	0.000	0.000	-3049.221	648.300	132.490	0.000	0.000	0.000	0.000	0.000	0.000	-2835.250	608.488	73.415	-3132.751	698.897	1080.921
-2910.531	827.202	1051.745	-2924.498	548.571	1052.712	-2954.490	663.649	547.092	0.000	0.000	0.000	-3049.157	648.290	132.510	0.000	0.000	0.000	0.000	0.000	0.000	-2835.286	608.470	73.458	-3132.705	699.119	1080.888
-2910.464	827.293	1051.720	-2924.561	548.689	1052.785	-2954.491	663.732	547.089	0.000	0.000	0.000	-3049.157	648.288	132.512	0.000	0.000	0.000	0.000	0.000	0.000	-2835.255	608.496	73.416	-3132.668	699.359	1080.906
-2910.223	827.391	1051.713	-2924.684	548.779	1052.754	-2954.494	663.754	547.103	0.000	0.000	0.000	-3049.176	648.292	132.532	0.000	0.000	0.000	0.000	0.000	0.000	-2835.298	608.512	73.391	-3132.676	699.594	1080.899
-2910.207	827.500	1051.796	-2924.674	548.803	1052.774	-2954.516	663.847	547.076	0.000	0.000	0.000	-3049.174	648.308	132.485	0.000	0.000	0.000	0.000	0.000	0.000	-2835.383	608.500	73.362	-3132.713	699.844	1080.924
-2910.205	827.606	1051.778	-2924.733	548.865	1052.787	-2954.602	663.923	547.069	0.000	0.000	0.000	-3049.135	648.233	132.567	0.000	0.000	0.000	0.000	0.000	0.000	-2835.339	608.486	73.412	-3132.749	700.095	1080.948
-2910.115	827.660	1051.713	-2924.809	548.955	1052.796	-2954.615	663.978	547.047	0.000	0.000	0.000	-3049.117	648.224	132.518	0.000	0.000	0.000	0.000	0.000	0.000	-2835.425	608.497	73.446	-3132.826	700.352	1080.973
-2909.959	827.797	1051.681	-2923.223	549.730	1052.894	-2954.568	663.992	547.044	0.000	0.000	0.000	-3049.189	648.266	132.542	0.000	0.000	0.000	0.000	0.000	0.000	-2835.363	608.477	73.409	-3132.844	700.560	1080.956
-2909.873	827.891	1051.683	-2924.965	549.123	1052.818	-2954.581	664.067	546.989	0.000	0.000	0.000	-3049.136	648.230	132.537	0.000	0.000	0.000	0.000	0.000	0.000	-2835.375	608.479	73.410	-3132.865	700.759	1080.951
-2909.873	828.019	1051.610	-2925.035	549.246	1052.873	-2954.652	664.146	546.971	0.000	0.000	0.000	-3049.185	648.219	132.579	0.000	0.000	0.000	0.000	0.000	0.000	-2835.397	608.535	73.430	-3132.873	700.973	1080.932
-2909.862	828.139	1051.606	-2925.154	549.336	1052.886	-2954.644	664.242	546.984	0.000	0.000	0.000	-3049.237	648.265	132.510	0.000	0.000	0.000	0.000	0.000	0.000	-2835.305	608.478	73.460	-3132.890	701.149	1080.919
0.000	0.000	0.000	-2925.212	549.421	1052.899	-2954.646	664.251	546.984	0.000	0.000	0.000	-3049.237	648.270	132.506	0.000	0.000	0.000	0.000	0.000	0.000	-2835.277	608.486	73.469	-3132.911	701.390	1080.914
0.000	0.000	0.000	-2925.330	549.557	1052.910	-2954.634	664.362	546.990	0.000	0.000	0.000	-3049.230	648.237	132.430	0.000	0.000	0.000	0.000	0.000	0.000	-2835.417	608.514	73.471	-3132.975	701.632	1080.887
0.000	0.000	0.000	-2923.630	550.322	1053.035	-2954.904	664.481	546.897	0.000	0.000	0.000	-3049.213	648.222	132.453	0.000	0.000	0.000	0.000	0.000	0.000	-2835.414	608.549	73.437	-3133.048	701.898	1080.862
0.000	0.000	0.000	-2925.290	549.786	1052.915	-2954.865	664.521	546.915	0.000	0.000	0.000	-3049.228	648.254	132.382	0.000	0.000	0.000	0.000	0.000	0.000	-2835.243	608.504	73.509	-3133.144	702.146	1080.883
0.000	0.000	0.000	-2925.114	549.554	1053.586	-2954.828	664.581	546.931	0.000	0.000	0.000	-3049.259	648.233	132.375	0.000	0.000	0.000	0.000	0.000	0.000	-2835.262	608.505	73.514	-3133.213	702.324	1080.862
0.000	0.000	0.000	-2923.326	550.423	1053.578	-2954.938	664.681	546.894	0.000	0.000	0.000	-3049.259	648.236	132.374	0.000	0.000	0.000	0.000	0.000	0.000	-2835.414	608.533	73.481	-3133.267	702.543	1080.846
0.000	0.000	0.000	-2925.301	549.848	1053.617	-2955.057	664.829	546.839	0.000	0.000	0.000	-3049.265	648.165	132.315	0.000	0.000	0.000	0.000	0.000	0.000	-2835.436	608.483	73.443	-3133.288	702.721	1080.806
0.000	0.000	0.000	-2925.335	549.997	1053.663	-2955.115	664.832	546.834	0.000	0.000	0.000	-3049.248	648.155	132.335	0.000	0.000	0.000	0.000	0.000	0.000	-2835.375	608.484	73.501	-3133.350	702.904	1080.792
0.000	0.000	0.000	-2923.509	550.963	1053.730	-2955.181	664.953	546.894	0.000	0.000	0.000	-3049.265	648.172	132.311	0.000	0.000	0.000	0.000	0.000	0.000	-2835.608	608.555	73.605	-3133.445	703.126	1080.776
0.000	0.000	0.000	-2925.537	550.359	1053.694	-2955.287	665.047	546.893	0.000	0.000	0.000	-3049.295	648.147	132.308	0.000	0.000	0.000	0.000	0.000	0.000	-2835.463	608.526	73.565	-3133.546	703.344	1080.777
0.000	0.000	0.000	-2925.785	550.796	1053.036	-2955.220	665.149	546.925	0.000	0.000	0.000	-3049.313	648.164	132.283	0.000	0.000	0.000	0.000	0.000	0.000	-2835.644	608.528	73.656	-3133.710	703.574	1080.811
-2910.367	830.042	1051.461	-2923.793	551.734	1053.191	-2955.444	665.300	546.812	0.000	0.000	0.000	-3049.273	648.090	132.296	0.000	0.000	0.000	0.000	0.000	0.000	-2835.508	608.528	73.585	-3133.833	703.784	1080.786
-2910.351	830.145	1051.491	-2924.181	551.905	1053.195	-2955.385	665.310	546.891	0.000	0.000	0.000	-3049.325	648.134	132.228	0.000	0.000	0.000	0.000	0.000	0.000	-2835.626	608.517	73.645	-3133.910	704.001	1080.672
-2910.551	830.323	1051.463	-2924.318	552.122	1053.223	-2955.516	665.437	546.882	0.000	0.000	0.000	-3049.369	648.076	132.240	0.000	0.000	0.000	0.000	0.000	0.000	-2835.673	608.496	73.697	-3134.007	704.194	1080.645
-2910.568	830.479	1051.411	-2926.209	551.698	1052.975	-2955.443	665.475	546.907	0.000	0.000	0.000	-3049.268	648.046	132.263	0.000	0.000	0.000	0.000	0.000	0.000	-2835.609	608.529	73.686	-3134.075	704.408	1080.573
-2910.528	830.650	1051.390	-2925.946	553.391	1053.067	-2955.589	665.589	546.897	0.000	0.000	0.000	-3049.381	648.050	132.181	0.000	0.000	0.000	0.000	0.000	0.000	-2835.597	608.525	73.689	-3134.167	704.606	1080.533
-2910.420	830.766	1051.462	-2926.668	552.321	1053.377	-2955.658	665.684	546.839	0.000	0.000	0.000	-3049.320	648.094	132.192	0.000	0.000	0.000	0.000	0.000	0.000	-2835.693	608.512	73.661	-3134.266	704.802	1080.496
-2910.605	831.096	1051.239	-2926.168	553.823	1052.952	-2955.551	665.698	546.899	0.000	0.000	0.000	-3049.352	648.058	132.232	0.000	0.000	0.000	0.000	0.000	0.000	-2835.707	608.492	73.697	-3134.419	705.073	1080.501
-2910.798	831.287	1051.231	-2926.980	552.636	1053.486	-2955.658	665.818	546.805	0.000	0.000	0.000	-3049.379	647.987	132.266	0.000	0.000	0.000	0.000	0.000	0.000	-2835.703	608.503	73.665	-3134.556	705.296	1080.515
-2910.666	831.379	1051.091	-2926.975	552.786	1053.101	-2955.612	665.882	546.883	0.000	0.000	0.000	-3049.329	648.000	132.222	0.000	0.000	0.000	0.000	0.000	0.000	-2835.702	608.510	73.674	-3134.703	705.546	1080.508
-2910.862	831.762	1051.083	-2927.021	552.931	1053.214	-2956.041	666.190	546.458	0.000	0.000	0.000	-3049.391	647.956	132.211	0.000	0.000	0.000	0.000	0.000	0.000	-2835.672	608.490	73.713	-3134.797	705.741	1080.487
-2911.009	832.088	1051.093	-2927.206	553.139	1053.297	-2956.083	666.284	546.457	0.000	0.000	0.000	-3049.343	647.965	132.238	0.000	0.000	0.000	0.000	0.000	0.000	-2835.720	608.536	73.692	-3134.855	705.959	1080.446
-2911.118	832.368	1051.117	-2927.164	553.306	1053.370	-2956.176	666.400	546.480	0.000	0.000	0.000	-3049.391	647.957	132.211	0.000	0.000	0.000	0.000	0.000	0.000	-2835.707	608.536	73.684	-3134.920	706.178	1080.375
-2911.200	832.613	1051.147	-2927.352	553.508	1053.402	-2956.082	666.459	546.532	0.000	0.000	0.000	-3049.307	647.942	132.211	0.000	0.000	0.000	0.000	0.000	0.000	-2835.727	608.551	73.722	-3134.992	706.390	1080.326
-2911.267	832.831	1051.178	-2927.439	553.685	1053.418	-2956.173	666.593	546.530	0.000	0.000	0.000	-3049.339	647.908	132.250	0.000	0.000	0.000	0.000	0.000	0.000	-2835.694	608.499	73.733	-3135.120	706.622	1080.326
-2911.332	833.034	1051.206	-2925.635	554.488	1053.598	-2956.068	666.629	546.581	0.000	0.000	0.000	-3049.355	647.938	132.181	0.000	0.000	0.000	0.000	0.000	0.000	-2835.619	608.491	73.805	-3135.287	706.880	1080.373
-2911.406	833.231	1051.224	-2925.710	554.668	1053.654	-2956.113	666.738	546.632	0.000	0.000	0.000	-3049.307	647.946	132.208	0.000	0.000	0.000	0.000	0.000	0.000	-2835.776	608.518	73.748	-3135.430	707.123	1080.402
-2911.500	833.432	1051.226	-2925.789	554.849	1053.639	-2956.095	666.834	546.619	0.000	0.000	0.000	-3049.339	647.912	132.247	0.000	0.000	0.000	0.000	0.000	0.000	-2835.678	608.504	73.747	-3135.552	707.365	1080.363
-2911.626	833.647	1051.207	-2925.965	555.089	1053.736	-2956.140	666.908	546.641	0.000	0.000	0.000	-3049.322	647.898	132.270	0.000	0.000	0.000	0.000	0.000	0.000	-2835.732	608.564	73.728	-3135.679	707.593	1080.349
-2911.656	833.835	1051.161	-2925.942	555.209	1053.710	-2956.006	667.027	546.684	0.000	0.000	0.000	-3049.305	647.878	132.264	0.000	0.000	0.000	0.000	0.000	0.000	-2835.751	608.570	73.692	-3135.797	707.800	1080.338
-2911.662	834.002	1051.228	-2925.991	555.387	1053.825	-2955.884	667.095	546.793	0.000	0.000	0.000	-3049.238	647.884	132.269	0.000	0.000	0.000	0.000	0.000	0.000	-2835.752	608.546	73.733	-3135.838	708.022	1080.331
-2911.667	834.234	1051.120	-2926.223	555.543	1053.935	-2955.846	667.198	546.768	0.000	0.000	0.000	-3049.210	647.895	132.318	0.000	0.000	0.000	0.000	0.000	0.000	-2835.793	608.537	73.709	-3135.878	708.252	1080.266
-2911.819	834.553	1051.037	-2926.006	555.488	1054.484	-2955.833	667.375	546.874	0.000	0.000	0.000	-3049.162	647.903	132.345	0.000	0.000	0.000	0.000	0.000	0.000	-2835.601	608.590	73.771	-3135.966	708.514	1080.220
-2911.913	834.759	1050.987	-2926.012	555.708	1054.441	-2955.847	667.494	546.886	0.000	0.000	0.000	-3049.192	647.882	132.340	0.000	0.000	0.000	0.000	0.000	0.000	-2835.653	608.574	73.742	-3136.148	708.768	1080.242
-2911.975	835.024	1050.960	-2926.577	556.074	1054.013	-2955.783	667.594	546.943	0.000	0.000	0.000	-3049.145	647.883	132.339	0.000	0.000	0.000	0.000	0.000	0.000	-2835.689	608.577	73.746	-3136.261	709.008	1080.217
-2911.982	835.298	1050.911	-2926.505	556.275	1054.070	-2955.846	667.712	547.009	0.000	0.000	0.000	-3049.146	647.879	132.411	0.000	0.000	0.000	0.000	0.000	0.000	-2835.723	608.606	73.678	-3136.334	709.241	1080.204
-2912.087	835.555	1050.959	-2926.810	556.420	1054.153	-2955.973	667.861	547.014	0.000	0.000	0.000	-3049.143	647.817	132.426	0.000	0.000	0.000	0.000	0.000	0.000	-2835.742	608.557	73.720	-3136.470	709.465	1080.188
-2912.238	835.788	1051.071	-2926.920	556.716	1054.130	-2955.972	667.934	547.025	0.000	0.000	0.000	-3049.131	647.843	132.452	0.000	0.000	0.000	0.000	0.000	0.000	-2835.684	608.565	73.709	-3136.500	709.667	1080.155
-2912.386	835.993	1051.211	-2928.966	556.232	1054.136	-2955.965	668.047	547.051	0.000	0.000	0.000	-3048.981	647.832	132.459	0.000	0.000	0.000	0.000	0.000	0.000	-2835.657	608.559	73.698	-3136.529	709.871	1080.126
-2912.478	836.164	1051.348	-2929.036	556.459	1054.173	-2956.071	668.170	547.055	0.000	0.000	0.000	-3049.031	647.814	132.475	0.000	0.000	0.000	0.000	0.000	0.000	-2835.766	608.548	73.690	-3136.623	710.087	1080.126
-2912.463	836.295	1051.445	-2929.204	556.709	1054.121	-2956.076	668.254	547.101	0.000	0.000	0.000	-3049.019	647.840	132.500	0.000	0.000	0.000	0.000	0.000	0.000	-2835.823	608.617	73.656	-3136.666	710.310	1080.103
-2912.537	836.400	1051.775	-2929.433	557.082	1054.583	-2955.940	668.327	547.173	0.000	0.000	0.000	-3048.985	647.810	132.546	0.000	0.000	0.000	0.000	0.000	0.000	-2835.766	608.602	73.629	-3136.773	710.547	1080.113
-2912.597	836.574	1051.749	-2929.569	557.288	1054.636	-2956.041	668.485	547.218	0.000	0.000	0.000	-3048.967	647.795	132.569	0.000	0.000	0.000	0.000	0.000	0.000	-2835.665	608.558	73.710	-3136.871	710.758	1080.136
-2912.681	836.716	1051.891	-2929.613	557.478	1054.283	-2956.027	668.554	547.216	0.000	0.000	0.000	-3048.951	647.772	132.566	0.000	0.000	0.000	0.000	0.000	0.000	-2835.668	608.557	73.708	-3136.938	711.019	1080.140
-2912.584	836.798	1051.908	-2929.611	557.583	1054.446	-2955.502	668.438	547.770	0.000	0.000	0.000	-3048.938	647.807	132.617	0.000	0.000	0.000	0.000	0.000	0.000	-2835.663	608.581	73.672	-3136.984	711.207	1080.120
-2912.648	836.974	1051.957	-2929.620	557.741	1054.528	-2955.440	668.516	547.822	0.000	0.000	0.000	-3048.922	647.786	132.612	0.000	0.000	0.000	0.000	0.000	0.000	-2835.634	608.578	73.724	-3137.026	711.397	1080.120
-2912.747	837.065	1051.883	-2929.711	557.882	1054.586	-2955.500	668.548	547.883	0.000	0.000	0.000	-3048.916	647.744	132.610	0.000	0.000	0.000	0.000	0.000	0.000	-2835.597	608.548	73.683	-3137.067	711.560	1080.074
-2912.747	837.291	1051.923	-2929.815	558.023	1054.615	-2955.384	668.569	547.989	0.000	0.000	0.000	-3048.855	647.792	132.617	0.000	0.000	0.000	0.000	0.000	0.000	-2835.708	608.548	73.715	-3137.075	711.737	1080.069
-2912.661	837.384	1051.930	-2929.795	558.104	1054.715	-2955.441	668.639	548.004	0.000	0.000	0.000	-3048.857	647.781	132.661	0.000	0.000	0.000	0.000	0.000	0.000	-2835.692	608.553	73.704	-3137.108	711.904	1080.047
-2912.745	837.510	1051.840	-2929.799	558.263	1054.787	-2955.517	668.713	548.025	0.000	0.000	0.000	-3048.834	647.718	132.654	0.000	0.000	0.000	0.000	0.000	0.000	-2835.786	608.520	73.757	-3137.154	712.116	1080.043
-2912.677	837.588	1051.986	-2929.850	558.400	1054.814	-2955.570	668.751	548.102	0.000	0.000	0.000	-3048.832	647.731	132.609	0.000	0.000	0.000	0.000	0.000	0.000	-2835.776	608.554	73.720	-3137.169	712.292	1080.024
-2912.622	837.675	1052.052	-2929.916	558.487	1054.871	-2955.589	668.847	548.102	0.000	0.000	0.000	-3048.766	647.732	132.586	0.000	0.000	0.000	0.000	0.000	0.000	-2835.870	608.473	73.782	-3137.229	712.498	1080.021
-2912.578	837.770	1052.050	-2930.041	558.702	1054.863	-2955.734	668.896	548.109	0.000	0.000	0.000	-3048.731	647.701	132.632	0.000	0.000	0.000	0.000	0.000	0.000	-2835.782	608.425	73.848	-3137.260	712.632	1080.016
-2912.546	837.874	1051.993	-2929.895	558.752	1054.892	-2955.745	668.920	548.061	0.000	0.000	0.000	-3048.791	647.663	132.550	0.000	0.000	0.000	0.000	0.000	0.000	-2835.812	608.368	73.881	-3137.235	712.744	1079.979
-2912.525	837.986	1051.894	-2930.053	558.874	1054.923	-2955.628	668.921	548.177	0.000	0.000	0.000	-3048.738	647.623	132.547	0.000	0.000	0.000	0.000	0.000	0.000	-2835.755	608.319	73.919	-3137.191	712.870	1079.911
-2912.517	838.107	1051.763	-2929.898	558.923	1054.949	-2955.699	668.928	548.128	0.000	0.000	0.000	-3048.630	647.554	132.498	0.000	0.000	0.000	0.000	0.000	0.000	-2835.197	607.972	74.733	-3137.170	712.981	1079.863
-2912.519	838.237	1051.615	-2929.927	559.078	1054.956	-2955.792	668.963	548.156	0.000	0.000	0.000	-3048.709	647.525	132.465	0.000	0.000	0.000	0.000	0.000	0.000	-2835.425	607.988	74.707	-3137.117	713.088	1079.777
-2912.532	838.375	1051.462	-2929.902	559.172	1054.974	-2955.872	668.984	548.065	0.000	0.000	0.000	-3048.801	647.458	132.450	0.000	0.000	0.000	0.000	0.000	0.000	-2835.411	607.925	74.740	-3137.135	713.233	1079.762
-2912.556	838.522	1051.315	-2929.862	559.200	1054.987	-2955.924	668.966	548.054	0.000	0.000	0.000	-3048.777	647.401	132.371	0.000	0.000	0.000	0.000	0.000	0.000	-2835.428	607.848	74.864	-3137.092	713.363	1079.671
-2912.591	838.679	1051.188	-2929.862	559.363	1054.972	-2955.986	668.987	547.994	0.000	0.000	0.000	-3048.850	647.323	132.309	0.000	0.000	0.000	0.000	0.000	0.000	-2835.570	607.764	74.849	-3137.109	713.484	1079.603
-2912.636	838.844	1051.093	-2929.904	559.444	1054.977	-2956.065	668.897	547.933	0.000	0.000	0.000	-3048.870	647.205	132.243	0.000	0.000	0.000	0.000	0.000	0.000	-2835.608	607.694	74.900	-3137.097	713.593	1079.520
-2912.641	838.921	1050.995	-2929.939	559.593	1055.004	-2956.008	668.834	547.893	0.000	0.000	0.000	-3048.894	647.139	132.137	0.000	0.000	0.000	0.000	0.000	0.000	-2835.847	607.607	74.985	-3137.057	713.695	1079.398
-2912.642	839.114	1050.750	-2929.943	559.625	1054.976	-2956.199	668.736	547.800	0.000	0.000	0.000	-3048.945	647.004	132.095	0.000	0.000	0.000	0.000	0.000	0.000	-2835.781	607.299	75.434	-3137.001	713.774	1079.298
-2912.737	839.207	1050.597	-2929.900	559.765	1054.843	-2956.302	668.661	547.702	0.000	0.000	0.000	-3049.020	646.915	132.076	0.000	0.000	0.000	0.000	0.000	0.000	-2836.031	607.196	75.643	-3136.937	713.827	1079.189
0.000	0.000	0.000	-2929.945	559.828	1054.626	-2956.336	668.560	547.635	0.000	0.000	0.000	-3049.039	646.802	131.940	0.000	0.000	0.000	0.000	0.000	0.000	-2836.166	607.085	75.725	-3136.854	713.925	1079.062
0.000	0.000	0.000	-2929.917	559.946	1054.850	-2956.313	668.442	547.563	0.000	0.000	0.000	-3049.042	646.670	131.897	0.000	0.000	0.000	0.000	0.000	0.000	-2836.306	606.922	75.977	-3136.817	714.024	1078.922
0.000	0.000	0.000	-2929.919	560.076	1054.656	-2956.837	668.576	546.952	0.000	0.000	0.000	-3049.045	646.526	131.830	0.000	0.000	0.000	0.000	0.000	0.000	-2836.387	606.807	76.073	-3136.812	714.132	1078.819
0.000	0.000	0.000	-2929.854	560.089	1054.665	-2956.598	668.312	546.903	0.000	0.000	0.000	-3049.113	646.403	131.735	0.000	0.000	0.000	0.000	0.000	0.000	-2836.456	606.592	76.276	-3136.753	714.273	1078.689
0.000	0.000	0.000	-2930.011	560.255	1054.587	-2956.370	668.091	546.914	0.000	0.000	0.000	-3049.099	646.253	131.717	0.000	0.000	0.000	0.000	0.000	0.000	-2836.548	606.427	76.421	-3136.716	714.405	1078.564
0.000	0.000	0.000	-2929.862	560.357	1054.597	-2956.087	667.839	546.867	0.000	0.000	0.000	-3049.188	646.119	131.689	0.000	0.000	0.000	0.000	0.000	0.000	-2836.713	606.209	76.506	-3136.591	714.562	1078.419
0.000	0.000	0.000	-2929.870	560.395	1054.506	-2955.966	667.587	546.790	0.000	0.000	0.000	-3049.167	645.930	131.566	0.000	0.000	0.000	0.000	0.000	0.000	-2836.779	606.116	76.678	-3136.481	714.673	1078.296
0.000	0.000	0.000	-2929.835	560.515	1054.467	-2955.726	667.357	546.767	0.000	0.000	0.000	-3049.187	645.812	131.501	0.000	0.000	0.000	0.000	0.000	0.000	-2836.906	605.945	76.783	-3136.324	714.782	1078.151
0.000	0.000	0.000	-2929.904	560.086	1055.447	-2955.502	667.039	546.789	0.000	0.000	0.000	-3049.274	645.691	131.428	0.000	0.000	0.000	0.000	0.000	0.000	-2837.061	605.799	76.931	-3136.233	714.938	1078.053
0.000	0.000	0.000	-2929.990	560.241	1055.448	-2955.334	666.916	546.722	0.000	0.000	0.000	-3049.231	645.553	131.459	0.000	0.000	0.000	0.000	0.000	0.000	-2837.082	605.619	77.084	-3136.097	715.119	1077.963
0.000	0.000	0.000	-2929.957	560.349	1055.410	-2955.221	666.671	546.670	0.000	0.000	0.000	-3049.277	645.362	131.360	0.000	0.000	0.000	0.000	0.000	0.000	-2837.288	605.499	77.122	-3135.978	715.287	1077.865
0.000	0.000	0.000	-2929.840	560.366	1055.403	-2954.879	666.405	546.609	0.000	0.000	0.000	-3049.316	645.245	131.318	0.000	0.000	0.000	0.000	0.000	0.000	-2837.361	605.380	77.141	-3135.856	715.511	1077.806
-2911.216	840.533	1049.112	-2929.904	561.249	1053.303	-2954.306	666.000	546.897	0.000	0.000	0.000	-3049.319	645.115	131.273	0.000	0.000	0.000	0.000	0.000	0.000	-2837.394	605.248	77.318	-3135.769	715.749	1077.743
-2911.053	840.607	1048.998	-2929.559	560.423	1055.382	-2954.204	665.814	546.680	0.000	0.000	0.000	-3049.371	644.965	131.278	0.000	0.000	0.000	0.000	0.000	0.000	-2837.381	605.112	77.431	-3135.591	715.958	1077.621
-2910.913	840.765	1048.870	-2929.691	560.675	1055.337	-2953.827	665.593	546.591	0.000	0.000	0.000	-3049.368	644.898	131.265	0.000	0.000	0.000	0.000	0.000	0.000	-2837.567	604.989	77.412	-3135.462	716.156	1077.573
-2910.777	840.915	1048.817	-2927.178	561.690	1054.250	-2953.725	665.418	546.472	0.000	0.000	0.000	-3049.424	644.807	131.224	0.000	0.000	0.000	0.000	0.000	0.000	-2837.525	604.883	77.558	-3135.254	716.352	1077.443
-2910.597	841.071	1048.706	-2929.408	560.733	1055.305	-2953.238	665.183	546.416	0.000	0.000	0.000	-3049.419	644.759	131.194	0.000	0.000	0.000	0.000	0.000	0.000	-2837.774	604.800	77.717	-3135.111	716.557	1077.393
-2910.326	841.247	1048.406	-2929.601	561.664	1053.073	-2953.054	665.044	546.248	0.000	0.000	0.000	-3049.477	644.652	131.200	0.000	0.000	0.000	0.000	0.000	0.000	-2837.620	604.643	77.854	-3134.927	716.788	1077.334
-2909.917	841.458	1047.783	-2929.114	560.828	1055.427	-2952.668	664.894	546.131	0.000	0.000	0.000	-3049.439	644.562	131.260	0.000	0.000	0.000	0.000	0.000	0.000	-2837.741	604.557	77.921	-3134.788	717.017	1077.321
-2910.504	842.139	1048.191	-2929.113	561.015	1055.396	-2953.857	665.055	545.948	0.000	0.000	0.000	-3049.471	644.527	131.300	0.000	0.000	0.000	0.000	0.000	0.000	-2838.075	604.593	77.787	-3134.644	717.281	1077.260
-2911.491	843.038	1049.173	-2929.261	561.158	1055.425	-2952.352	664.916	545.185	0.000	0.000	0.000	-3049.451	644.453	131.337	0.000	0.000	0.000	0.000	0.000	0.000	-2838.009	604.522	77.891	-3134.479	717.528	1077.229
-2912.282	843.902	1050.271	-2929.024	561.188	1055.455	-2951.993	664.844	545.069	0.000	0.000	0.000	-3049.420	644.477	131.341	0.000	0.000	0.000	0.000	0.000	0.000	-2837.949	604.366	78.044	-3134.332	717.731	1077.190
-2912.282	844.481	1051.027	-2928.995	561.366	1055.381	-2951.423	664.791	545.019	0.000	0.000	0.000	-3053.115	644.929	135.550	0.000	0.000	0.000	0.000	0.000	0.000	-2838.035	604.358	78.038	-3134.120	717.922	1077.118
-2910.895	844.521	1050.985	-2929.442	562.784	1053.350	-2950.926	664.701	544.863	0.000	0.000	0.000	-3053.118	644.916	135.604	0.000	0.000	0.000	0.000	0.000	0.000	-2837.899	604.204	78.150	-3133.851	718.114	1077.042
-2909.919	844.713	1050.990	-2928.621	564.244	1052.892	-2950.431	664.738	544.775	0.000	0.000	0.000	-3052.984	644.905	135.663	0.000	0.000	0.000	0.000	0.000	0.000	-2837.895	604.175	78.215	-3133.652	718.287	1077.006
-2909.077	844.798	1050.964	-2927.693	564.018	1052.337	-2949.949	664.755	544.732	0.000	0.000	0.000	-3052.944	644.949	135.714	0.000	0.000	0.000	0.000	0.000	0.000	-2837.891	604.181	78.228	-3133.382	718.477	1076.927
-2908.119	844.730	1050.904	-2928.594	565.583	1052.971	-2949.561	664.814	544.563	0.000	0.000	0.000	-3052.739	645.178	135.279	0.000	0.000	0.000	0.000	0.000	0.000	-2838.015	604.120	78.246	-3133.200	718.668	1076.908
-2907.275	844.930	1050.871	-2928.399	566.108	1053.277	-2948.928	664.824	544.533	0.000	0.000	0.000	-3052.702	645.201	135.333	0.000	0.000	0.000	0.000	0.000	0.000	-2837.758	604.064	78.386	-3132.977	718.843	1076.902
-2906.405	844.891	1050.822	-2928.254	566.382	1053.416	-2948.305	664.849	544.511	0.000	0.000	0.000	-3052.616	645.230	135.394	0.000	0.000	0.000	0.000	0.000	0.000	-2837.868	604.059	78.335	-3132.727	719.071	1076.844
-2905.590	845.045	1050.682	-2927.940	566.657	1053.632	-2947.503	664.835	544.425	0.000	0.000	0.000	-3052.712	645.322	135.571	0.000	0.000	0.000	0.000	0.000	0.000	-2837.844	604.020	78.425	-3134.065	718.780	1077.203
-2904.509	844.831	1050.288	-2927.451	566.968	1053.792	-2946.790	664.898	544.343	0.000	0.000	0.000	-3052.639	645.333	135.602	0.000	0.000	0.000	0.000	0.000	0.000	-2837.865	604.042	78.337	-3133.831	718.938	1077.199
-2904.005	844.968	1050.279	-2926.921	567.176	1053.917	-2946.136	664.999	544.317	0.000	0.000	0.000	-3052.532	645.360	135.626	0.000	0.000	0.000	0.000	0.000	0.000	-2837.844	604.040	78.323	-3131.914	719.576	1076.761
-2903.447	845.269	1050.257	-2926.410	567.439	1054.058	-2945.312	665.060	544.328	0.000	0.000	0.000	-3052.391	645.389	135.716	0.000	0.000	0.000	0.000	0.000	0.000	-2837.802	604.067	78.305	-3131.600	719.721	1076.708
-2902.896	845.378	1050.252	-2926.316	567.507	1054.367	-2944.580	665.160	544.294	0.000	0.000	0.000	-3052.217	645.439	135.545	0.000	0.000	0.000	0.000	0.000	0.000	-2837.712	604.033	78.271	-3131.235	719.898	1076.676
-2902.230	845.540	1050.184	-2925.690	567.813	1054.429	-2943.921	665.277	544.215	0.000	0.000	0.000	-3052.124	645.481	135.630	0.000	0.000	0.000	0.000	0.000	0.000	-2837.768	604.146	78.275	-3130.962	720.072	1076.659
-2902.107	846.023	1050.461	-2925.227	568.038	1054.487	-2943.105	665.359	544.199	0.000	0.000	0.000	-3051.951	645.518	135.694	0.000	0.000	0.000	0.000	0.000	0.000	-2837.770	604.218	78.170	-3130.651	720.280	1076.603
-2901.777	846.245	1050.500	-2924.763	568.280	1054.542	-2942.777	665.713	543.517	0.000	0.000	0.000	-3051.917	645.602	135.876	-3086.751	568.262	115.742	0.000	0.000	0.000	-2837.699	604.225	78.140	-3130.420	720.466	1076.584
-2901.400	846.544	1050.530	-2923.693	568.757	1054.267	-2941.765	665.713	543.442	0.000	0.000	0.000	-3051.696	645.542	135.851	-3086.407	568.172	115.869	0.000	0.000	0.000	-2837.856	604.373	78.001	-3130.099	720.670	1076.561
-2900.543	846.603	1050.115	-2923.662	568.711	1054.812	-2940.589	665.700	543.522	0.000	0.000	0.000	-3051.435	645.570	135.936	-3086.837	568.515	115.916	0.000	0.000	0.000	-2837.627	604.339	78.073	-3129.770	720.863	1076.470
-2900.120	846.842	1050.049	-2923.179	568.991	1054.857	-2939.340	665.722	543.446	0.000	0.000	0.000	-3051.358	645.595	136.020	-3086.522	568.524	116.084	0.000	0.000	0.000	-2837.666	604.482	77.929	-3129.435	721.051	1076.413
-2899.866	847.273	1049.957	-2922.639	569.305	1054.798	-2938.087	665.653	543.419	0.000	0.000	0.000	-3051.248	645.604	136.192	-3086.206	568.405	116.262	0.000	0.000	0.000	-2837.648	604.486	77.882	-3129.110	721.235	1076.354
-2899.730	847.747	1049.978	-2922.175	569.609	1054.803	-2937.141	665.731	543.145	0.000	0.000	0.000	-3050.958	645.545	136.203	-3086.375	568.567	116.442	0.000	0.000	0.000	-2837.367	604.492	77.679	-3128.801	721.470	1076.294
-2899.324	848.156	1049.835	-2923.654	569.251	1056.253	-2936.029	665.770	542.979	0.000	0.000	0.000	-3050.953	645.372	136.910	-3086.054	568.441	116.684	0.000	0.000	0.000	-2837.342	604.607	77.604	-3128.399	721.795	1076.197
-2899.170	848.625	1049.856	-2920.684	570.657	1054.410	-2934.894	665.702	542.856	0.000	0.000	0.000	-3050.782	645.353	137.057	-3086.007	568.559	116.788	0.000	0.000	0.000	-2837.377	604.669	77.527	-3128.106	722.109	1076.141
-2898.977	849.067	1049.765	-2920.328	571.113	1054.428	-2933.558	665.797	542.807	0.000	0.000	0.000	-3050.493	645.337	137.235	-3085.616	568.343	117.047	0.000	0.000	0.000	-2837.163	604.671	77.499	-3127.782	722.436	1076.135
-2898.688	849.461	1049.694	-2919.851	571.538	1054.341	-2932.501	665.759	542.625	0.000	0.000	0.000	-3050.208	645.273	137.375	-3085.261	568.299	117.161	0.000	0.000	0.000	-2837.096	604.701	77.418	-3127.495	722.743	1076.095
-2898.484	849.971	1049.706	-2919.838	572.665	1054.717	-2931.064	665.662	542.569	0.000	0.000	0.000	-3049.906	645.182	137.645	-3085.188	568.407	117.451	0.000	0.000	0.000	-2837.013	604.758	77.320	-3127.190	723.031	1076.044
-2898.343	850.506	1049.613	-2919.384	573.112	1054.650	-2929.592	665.612	542.443	0.000	0.000	0.000	-3049.550	645.038	137.848	-3084.884	568.254	117.750	0.000	0.000	0.000	-2837.109	604.829	77.186	-3126.872	723.358	1076.016
-2898.140	850.984	1049.466	-2918.843	573.593	1054.550	-2927.944	665.488	542.354	0.000	0.000	0.000	-3049.311	645.056	138.034	-3084.452	567.998	117.959	0.000	0.000	0.000	-2836.910	604.852	77.090	-3126.472	723.713	1075.912
-2897.924	851.455	1049.309	-2914.542	575.186	1052.389	-2926.531	665.429	542.193	0.000	0.000	0.000	-3048.954	644.943	138.261	-3084.534	568.048	118.230	0.000	0.000	0.000	-2836.731	604.885	76.986	-3126.053	724.076	1075.834
-2897.690	851.920	1049.140	-2916.983	574.328	1053.531	-2925.095	665.241	542.018	0.000	0.000	0.000	-3048.709	644.902	138.514	-3084.642	568.032	118.550	0.000	0.000	0.000	-2836.584	604.895	76.954	-3125.720	724.445	1075.777
-2897.431	852.381	1048.957	-2916.750	574.504	1053.806	-2924.883	665.347	542.139	0.000	0.000	0.000	-3048.357	644.853	138.828	-3084.321	567.999	118.937	0.000	0.000	0.000	-2836.583	604.946	76.734	-3125.406	724.831	1075.727
-2897.144	852.841	1048.759	-2916.392	574.972	1053.779	-2921.872	664.921	541.849	0.000	0.000	0.000	-3048.025	644.758	139.288	-3083.879	567.831	119.394	0.000	0.000	0.000	-2836.443	605.053	76.625	-3125.074	725.250	1075.705
-2896.824	853.302	1048.545	-2916.766	575.136	1054.269	-2919.929	664.788	541.660	0.000	0.000	0.000	-3047.640	644.678	139.735	-3083.467	567.676	119.877	0.000	0.000	0.000	-2836.458	605.114	76.413	-3124.694	725.692	1075.724
-2896.464	853.766	1048.313	-2916.406	575.593	1054.282	-2918.088	664.640	541.253	0.000	0.000	0.000	-3047.185	644.507	140.250	-3083.241	567.680	120.340	0.000	0.000	0.000	-2836.116	605.130	76.238	-3124.354	726.120	1075.694
-2896.060	854.234	1048.061	-2915.984	576.109	1054.203	-2915.724	664.217	541.263	-2961.372	550.596	568.536	-3046.826	644.452	140.585	-3083.352	567.991	120.742	0.000	0.000	0.000	-2836.441	605.392	75.582	-3123.988	726.528	1075.684
-2895.504	854.520	1047.725	-2915.463	576.645	1054.169	-2913.425	663.965	541.236	-2959.011	550.123	568.589	-3046.225	644.302	140.961	-3082.684	567.782	121.271	0.000	0.000	0.000	-2836.262	605.448	75.428	-3123.647	726.980	1075.679
-2895.200	854.982	1047.463	-2916.262	576.695	1055.029	-2911.225	663.711	541.212	-2956.740	549.692	568.673	-3045.559	644.176	141.461	-3082.079	567.577	121.737	0.000	0.000	0.000	-2836.043	605.472	75.244	-3123.246	727.381	1075.640
-2894.989	855.517	1047.225	-2915.837	577.239	1055.054	-2909.219	663.427	541.274	-2955.217	549.623	568.699	-3045.158	644.106	142.359	-3081.583	567.393	122.229	0.000	0.000	0.000	-2835.682	605.459	75.150	-3122.916	727.820	1075.685
-2894.712	856.025	1046.959	-2913.525	578.622	1053.592	-2907.685	663.462	540.714	-2952.978	549.244	568.867	-3044.635	644.023	142.860	-3081.621	567.449	122.781	0.000	0.000	0.000	-2835.592	605.522	74.846	-3122.563	728.287	1075.662
-2894.210	856.403	1046.614	-2913.188	579.144	1053.614	-2905.045	663.150	540.662	-2951.230	549.206	568.979	-3043.970	643.886	143.436	-3081.277	567.389	123.512	0.000	0.000	0.000	-2835.543	605.674	74.440	-3122.204	728.738	1075.764
-2893.986	856.881	1046.357	-2912.867	579.622	1053.562	-2902.641	662.769	540.546	-2949.327	549.153	569.097	-3043.292	643.786	143.877	-3080.756	567.313	124.306	0.000	0.000	0.000	-2835.314	605.726	74.074	-3121.813	729.225	1075.709
-2893.709	857.386	1046.099	-2912.654	580.002	1053.570	-2899.887	662.268	540.492	-2947.642	549.063	569.151	-3042.643	643.709	144.661	-3080.260	567.323	125.050	0.000	0.000	0.000	-2835.151	605.801	73.742	-3121.489	729.694	1075.763
-2893.237	857.798	1045.750	-2912.365	580.446	1053.629	-2896.731	661.662	540.565	-2936.663	545.319	567.382	-3041.785	643.551	145.313	-3079.993	567.517	125.629	0.000	0.000	0.000	-2834.952	605.884	73.550	-3121.147	730.147	1075.759
-2893.070	858.206	1045.611	-2911.956	580.857	1053.594	-2894.227	661.253	540.526	-2934.208	544.857	566.553	-3041.019	643.371	145.985	-3078.935	566.999	126.365	0.000	0.000	0.000	-2834.558	605.873	73.359	-3120.779	730.550	1075.768
-2893.011	858.696	1045.517	-2911.265	581.393	1053.296	-2891.380	660.732	540.441	-2934.036	544.779	567.050	-3040.473	643.216	147.080	-3078.293	566.878	127.331	0.000	0.000	0.000	-2834.355	605.971	73.001	-3120.397	730.996	1075.777
-2892.829	859.135	1045.353	-2909.996	582.206	1052.632	-2888.398	660.323	540.442	-2930.599	543.499	568.073	-3039.368	642.972	147.657	-3077.830	566.938	128.390	0.000	0.000	0.000	-2833.921	605.949	72.784	-3120.007	731.419	1075.777
-2892.545	859.535	1045.131	-2909.725	582.600	1052.586	-2885.781	659.991	540.032	-2928.522	543.111	568.478	-3038.570	642.974	148.530	-3077.306	566.964	129.404	0.000	0.000	0.000	-2833.726	605.969	72.477	-3119.646	731.820	1075.796
-2892.183	859.905	1044.860	-2909.342	583.059	1052.513	-2882.223	659.167	540.279	-2926.407	542.775	568.646	-3037.516	642.737	149.539	-3076.484	566.741	130.235	0.000	0.000	0.000	-2833.956	606.157	71.439	-3119.307	732.267	1075.822
-2891.766	860.258	1044.552	-2908.885	583.516	1052.347	-2878.778	658.543	540.236	-2923.836	542.281	569.061	-3036.592	642.659	150.438	-3075.532	566.565	131.255	0.000	0.000	0.000	-2833.696	606.070	71.150	-3118.912	732.721	1075.814
-2891.317	860.604	1044.216	-2909.110	583.695	1052.600	-2875.524	658.019	540.252	-2921.228	541.859	569.192	-3035.309	642.571	151.369	-3075.260	566.750	132.576	0.000	0.000	0.000	-2833.265	605.964	70.850	-3118.571	733.150	1075.792
-2890.859	860.953	1043.864	-2908.137	584.379	1052.039	-2872.624	657.688	539.930	-2918.955	541.355	569.242	-3034.251	642.480	152.282	-3073.887	566.620	133.694	0.000	0.000	0.000	-2832.748	605.902	70.495	-3118.177	733.521	1075.739
-2890.414	861.318	1043.506	-2907.698	584.841	1051.836	-2868.995	656.943	540.069	-2916.924	540.888	569.351	-3033.183	642.327	153.408	-3072.967	566.425	134.647	0.000	0.000	0.000	-2832.261	605.871	70.047	-3117.724	733.930	1075.678
-2890.006	861.708	1043.152	-2907.328	585.208	1051.700	-2865.350	656.088	540.318	-2915.288	540.512	569.335	-3031.940	642.172	154.689	-3072.037	566.464	136.101	0.000	0.000	0.000	-2831.613	605.870	69.731	-3117.308	734.287	1075.613
-2889.657	862.134	1042.814	-2906.285	585.956	1050.932	-2861.579	655.459	540.414	-2906.417	539.512	572.049	-3030.447	642.072	155.588	-3070.916	566.428	137.611	0.000	0.000	0.000	-2831.429	606.023	68.985	-3116.837	734.641	1075.595
-2889.391	862.608	1042.502	-2906.523	586.072	1051.179	-2858.379	654.870	540.502	-2904.051	539.292	572.202	-3029.227	641.866	156.819	-3069.425	566.007	138.729	0.000	0.000	0.000	-2830.920	606.053	68.526	-3116.465	734.988	1075.597
-2888.732	862.896	1041.952	-2906.119	586.393	1050.988	-2854.776	654.346	540.725	-2901.169	538.810	572.617	-3027.972	641.750	158.207	-3068.467	566.046	140.208	0.000	0.000	0.000	-2830.487	606.062	68.078	-3116.078	735.350	1075.576
-2888.569	863.307	1041.808	-2905.866	586.670	1050.896	-2850.976	653.644	541.156	-2897.872	538.421	572.791	-3026.399	641.645	159.414	-3067.444	566.060	141.776	0.000	0.000	0.000	-2829.989	605.923	67.604	-3115.659	735.693	1075.618
-2888.436	863.743	1041.724	-2905.433	586.997	1050.719	-2847.118	652.942	541.703	-2894.161	537.673	573.595	-3024.987	641.496	160.720	-3065.753	565.568	143.162	0.000	0.000	0.000	-2829.475	605.746	67.013	-3115.264	736.019	1075.672
-2888.182	864.127	1041.535	-2905.089	587.227	1050.634	-2843.448	652.415	542.322	-2890.953	537.293	573.967	-3023.489	641.276	162.256	-3064.785	565.697	145.098	0.000	0.000	0.000	-2828.995	605.537	66.498	-3114.807	736.299	1075.667
-2887.829	864.469	1041.261	-2904.585	587.435	1050.466	-2839.755	652.043	542.775	-2887.305	536.838	574.754	-3021.694	640.962	163.623	-3062.712	565.334	146.591	0.000	0.000	0.000	-2828.304	605.227	65.968	-3114.342	736.537	1075.767
-2887.397	864.776	1040.926	-2903.416	588.584	1049.912	-2835.893	651.623	543.418	-2884.392	536.598	575.175	-3019.912	640.729	165.009	-3061.465	565.030	147.986	0.000	0.000	0.000	-2827.563	604.991	65.505	-3113.817	736.792	1075.781
-2886.907	865.059	1040.552	-2902.893	588.798	1049.709	-2832.295	651.385	544.149	-2881.496	536.549	575.493	-3018.157	640.462	166.492	-3060.157	565.089	150.028	0.000	0.000	0.000	-2826.962	604.755	64.712	-3113.344	737.007	1075.866
-2886.380	865.326	1040.161	-2899.004	590.194	1047.729	-2828.255	650.924	545.003	-2878.128	536.195	576.173	-3016.441	640.210	167.986	-3058.297	564.589	151.384	0.000	0.000	0.000	-2826.362	604.345	64.337	-3112.861	737.236	1075.908
-2885.838	865.587	1039.775	-2901.259	589.174	1048.617	-2824.469	650.621	545.918	-2872.218	534.910	577.299	-3014.684	639.882	169.809	-3056.530	564.293	153.166	0.000	0.000	0.000	-2825.374	603.791	63.887	-3112.374	737.463	1075.949
-2885.300	865.850	1039.417	-2900.865	589.343	1048.498	-2820.509	650.292	546.752	-2869.124	534.729	577.975	-3012.714	639.575	171.393	-3054.749	563.984	155.042	0.000	0.000	0.000	-2824.500	603.114	63.462	-3111.930	737.685	1076.093
-2884.787	866.124	1039.109	-2900.386	589.527	1048.372	-2816.928	650.237	547.641	-2866.040	534.671	578.635	-3010.635	639.273	172.969	-3052.847	563.444	156.681	0.000	0.000	0.000	-2823.565	602.510	63.102	-3111.447	737.877	1076.156
-2884.322	866.419	1038.874	-2899.728	589.810	1048.209	-2813.381	650.034	548.625	-2863.153	534.559	579.672	-3008.705	639.000	174.637	-3051.842	563.844	158.861	0.000	0.000	0.000	-2822.718	601.765	62.861	-3110.901	738.081	1076.185
-2883.690	866.589	1038.599	-2899.209	590.033	1048.123	-2809.137	649.723	550.301	-2860.447	534.676	580.348	-3006.857	638.841	176.359	-3049.754	563.216	160.308	0.000	0.000	0.000	-2821.768	601.000	62.491	-3110.335	738.243	1076.205
-2882.945	866.782	1038.275	-2898.787	590.129	1048.034	-2805.590	649.643	551.318	-2857.870	534.874	581.008	-3005.005	638.668	178.061	-3048.450	563.407	162.602	0.000	0.000	0.000	-2820.770	600.289	62.151	-3109.765	738.395	1076.253
-2882.636	867.052	1038.203	-2898.386	590.283	1048.001	-2801.963	649.578	552.332	-2856.372	533.596	579.134	-3003.035	638.504	179.947	-3046.323	563.076	164.177	0.000	0.000	0.000	-2819.512	599.345	61.887	-3109.099	738.527	1076.226
-2882.162	867.266	1038.090	-2897.937	590.454	1047.969	-2798.666	649.611	553.368	-2852.740	533.790	580.116	-3000.779	638.333	181.372	-3044.793	563.127	166.589	0.000	0.000	0.000	-2818.283	598.577	61.650	-3108.498	738.665	1076.255
-2881.624	867.448	1037.963	-2897.662	590.570	1047.860	-2795.119	649.656	554.310	-2849.220	533.993	581.300	-2998.740	638.282	183.125	-3042.482	562.857	168.125	0.000	0.000	0.000	-2817.263	597.849	61.382	-3107.842	738.873	1076.231
-2881.031	867.602	1037.827	-2898.000	590.430	1048.219	-2791.621	649.661	555.400	-2845.773	533.977	582.447	-2996.884	638.225	185.158	-3041.231	563.078	170.496	0.000	0.000	0.000	-2816.361	597.199	61.221	-3107.231	739.013	1076.288
-2880.392	867.735	1037.685	-2897.011	590.793	1047.732	-2788.307	649.763	556.394	-2842.378	532.915	583.818	-2994.712	638.181	186.707	-3038.662	562.805	172.121	0.000	0.000	0.000	-2815.069	596.548	60.864	-3106.594	739.160	1076.346
-2879.715	867.855	1037.543	-2897.149	590.668	1047.991	-2784.678	649.788	557.427	-2838.932	532.910	584.968	-2992.458	638.214	188.380	-3036.537	562.718	173.673	0.000	0.000	0.000	-2814.283	596.029	60.263	-3105.875	739.305	1076.414
-2879.011	867.966	1037.404	-2896.796	590.691	1047.934	-2781.305	649.803	558.589	-2835.542	532.903	586.166	-2990.387	638.329	189.962	-3034.754	562.786	175.168	0.000	0.000	0.000	-2812.832	595.204	59.936	-3105.141	739.429	1076.451
-2878.286	868.075	1037.271	-2896.318	590.639	1047.818	-2777.816	649.852	559.676	-2832.146	532.969	587.211	-2988.375	638.470	191.630	-3033.211	562.976	176.621	0.000	0.000	0.000	-2810.989	594.337	60.236	-3104.367	739.515	1076.491
-2877.552	868.189	1037.149	-2895.338	590.607	1047.869	-2774.631	649.996	560.760	-2828.870	532.887	588.383	-2983.577	637.433	194.677	-3031.806	563.257	178.047	0.000	0.000	0.000	-2809.937	593.858	60.040	-3103.592	739.567	1076.565
-2876.816	868.314	1037.043	-2894.200	590.416	1047.822	-2771.049	650.109	562.047	-2825.533	532.970	589.326	-2981.306	637.584	196.042	-3030.437	563.597	179.463	0.000	0.000	0.000	-2808.439	593.505	60.272	-3102.710	739.648	1076.625
-2875.989	868.393	1036.888	-2894.194	589.527	1047.023	-2768.087	650.219	563.235	-2822.290	532.984	590.319	-2979.110	637.774	197.473	-3029.003	563.965	180.884	0.000	0.000	0.000	-2806.605	593.245	60.825	-3101.950	739.738	1076.779
-2875.090	868.439	1036.697	-2893.199	589.620	1047.048	-2764.918	650.470	564.238	-2818.782	533.152	591.501	-2976.478	638.000	199.024	-3027.402	564.329	182.325	0.000	0.000	0.000	-2804.356	593.117	61.765	-3101.112	739.835	1076.922
-2874.136	868.461	1036.479	-2892.235	589.643	1047.227	-2761.575	650.618	565.447	-2815.574	533.242	592.422	-2974.124	638.158	200.314	-3025.532	564.657	183.803	0.000	0.000	0.000	-2802.356	593.021	62.680	-3100.248	739.899	1077.055
-2873.142	868.472	1036.244	-2891.271	589.721	1047.317	-2758.330	650.828	566.677	-2812.451	533.315	593.327	-2971.770	638.432	201.245	-3023.291	564.918	185.332	0.000	0.000	0.000	-2799.691	592.968	63.951	-3099.285	739.964	1077.128
-2872.128	868.481	1036.003	-2888.372	590.583	1047.408	-2755.478	651.192	567.679	-2809.346	533.352	594.284	-2968.719	638.676	202.645	-3020.577	565.079	186.928	0.000	0.000	0.000	-2796.724	592.846	65.071	-3098.312	739.999	1077.249
-2871.109	868.500	1035.768	-2887.329	590.626	1047.515	-2752.531	651.545	568.614	-2806.258	533.493	595.127	-2966.145	638.887	203.555	-3017.290	565.110	188.607	0.000	0.000	0.000	-2793.802	592.724	66.100	-3097.333	740.017	1077.468
-2870.104	868.540	1035.547	-2886.272	590.697	1047.794	-2749.320	651.704	570.158	-2803.235	533.565	596.075	-2963.019	639.110	204.483	-3013.326	564.978	190.385	0.000	0.000	0.000	-2790.382	592.554	67.249	-3096.325	739.998	1077.642
-2869.128	868.613	1035.351	-2885.190	590.810	1047.949	-2746.631	652.065	571.333	-2800.307	533.686	596.958	-2959.855	639.292	205.315	-3008.584	564.651	192.276	0.000	0.000	0.000	-2786.976	592.395	68.264	-3095.271	739.998	1077.844
-2868.200	868.728	1035.192	-2884.365	590.896	1047.908	-2744.015	652.515	572.353	-2797.432	533.843	597.803	-2956.528	639.500	205.942	-3004.591	564.959	193.150	0.000	0.000	0.000	-2783.365	592.181	69.307	-3094.241	739.990	1078.055
-2867.336	868.897	1035.078	-2883.181	590.995	1048.096	-2741.621	652.976	573.308	-2794.520	534.038	598.689	-2952.850	639.655	206.707	-3000.048	564.743	193.922	0.000	0.000	0.000	-2779.699	591.962	70.257	-3093.195	740.018	1078.235
-2866.553	869.130	1035.022	-2882.117	591.134	1048.169	-2738.990	653.414	574.553	-2791.698	534.203	599.524	-2949.183	639.807	207.094	-2996.184	564.954	194.401	0.000	0.000	0.000	-2775.261	591.660	71.668	-3092.154	740.004	1078.475
-2865.665	869.340	1034.963	-2880.658	591.256	1048.376	-2736.564	653.768	575.636	-2788.976	534.391	600.442	-2945.139	639.954	207.582	-2992.435	565.087	194.834	0.000	0.000	0.000	-2771.612	591.689	72.056	-3091.037	740.008	1078.691
-2864.826	869.530	1034.912	-2879.347	591.454	1048.507	-2733.748	654.013	576.837	-2786.197	534.581	601.215	-2941.103	640.065	208.036	-2988.157	565.304	195.099	0.000	0.000	0.000	-2757.668	591.796	76.465	-3089.899	739.964	1078.886
-2863.971	869.637	1034.818	-2878.235	591.488	1048.566	-2731.115	654.315	578.151	-2783.426	534.807	601.982	-2939.750	641.096	207.199	-2983.398	565.285	195.579	0.000	0.000	0.000	-2753.647	590.904	76.963	-3088.738	739.876	1079.084
-2863.021	869.698	1034.672	-2877.019	591.570	1048.740	-2728.476	654.679	579.207	-2780.691	535.014	602.805	-2936.269	641.514	206.747	-2979.137	565.411	195.622	0.000	0.000	0.000	-2748.933	590.624	77.792	-3087.507	739.771	1079.201
-2861.992	869.731	1034.488	-2875.800	591.662	1048.859	-2726.181	655.052	580.122	-2778.010	535.179	603.580	-2928.042	640.326	208.477	-2973.413	564.951	194.973	0.000	0.000	0.000	-2743.799	590.506	78.777	-3086.314	739.741	1079.326
-2860.907	869.755	1034.275	-2875.742	592.583	1048.702	-2723.776	655.456	581.018	-2775.413	535.368	604.462	-2923.887	640.463	208.269	-2968.947	565.227	194.793	0.000	0.000	0.000	-2738.550	590.374	79.797	-3085.056	739.681	1079.453
-2859.783	869.787	1034.046	-2874.560	592.588	1048.783	-2721.496	655.909	581.927	-2772.862	535.631	605.190	-2919.527	640.601	208.209	-2964.310	565.436	194.770	0.000	0.000	0.000	-2733.555	590.855	80.229	-3083.877	739.563	1079.652
-2858.640	869.846	1033.813	-2873.231	592.819	1048.727	-2719.357	656.256	582.810	-2770.321	535.809	605.986	-2914.441	640.590	207.996	-2960.019	565.777	194.729	0.000	0.000	0.000	-2728.233	590.911	81.025	-3082.678	739.490	1079.860
-2857.497	869.950	1033.585	-2871.430	593.150	1048.451	-2716.948	656.659	583.711	-2767.915	536.158	606.517	-2909.770	640.805	207.595	-2953.915	565.272	193.440	0.000	0.000	0.000	-2722.418	590.908	81.918	-3081.348	739.422	1079.900
-2856.374	870.118	1033.376	-2870.044	593.229	1048.488	-2715.069	657.079	584.359	-2765.855	536.768	606.851	-2905.026	641.039	206.696	-2949.575	565.816	192.965	0.000	0.000	0.000	-2716.831	591.126	82.441	-3080.031	739.314	1079.972
-2855.042	870.076	1033.032	-2869.560	591.801	1049.217	-2712.598	657.417	585.140	-2763.033	536.878	607.561	-2899.822	640.881	206.309	-2944.576	565.916	192.587	0.000	0.000	0.000	-2710.623	590.881	83.159	-3078.712	739.129	1080.108
-2853.908	870.145	1032.829	-2868.183	592.026	1049.103	-2710.720	657.830	585.897	-2760.484	537.252	608.031	-2894.804	641.046	205.187	-2938.133	565.356	191.149	0.000	0.000	0.000	-2704.495	590.954	83.996	-3077.309	738.943	1080.188
-2852.581	870.189	1032.525	-2865.787	593.581	1048.299	-2708.644	658.200	586.628	-2758.021	537.514	608.571	-2889.046	640.872	205.042	-2933.597	565.926	190.637	0.000	0.000	0.000	-2697.984	590.875	84.888	-3075.882	738.772	1080.259
-2850.766	869.950	1031.825	-2864.321	593.702	1048.286	-2706.652	658.612	587.188	-2755.617	537.780	609.153	-2883.769	641.063	203.891	-2927.266	565.460	189.066	0.000	0.000	0.000	-2691.737	591.262	85.335	-3074.446	738.603	1080.305
-2849.609	869.964	1031.685	-2862.890	593.786	1048.357	-2704.475	658.934	587.775	-2753.256	538.061	609.621	-2878.096	641.034	203.308	-2921.986	565.714	188.418	0.000	0.000	0.000	-2685.142	591.513	85.875	-3073.003	738.439	1080.362
-2848.694	870.152	1031.637	-2860.544	593.366	1047.918	-2702.363	659.346	588.372	-2750.864	538.479	609.862	-2872.119	640.988	202.336	-2915.264	565.217	186.811	0.000	0.000	0.000	-2678.531	591.917	86.272	-3071.578	738.262	1080.437
-2847.676	870.284	1031.540	-2857.417	592.529	1049.706	-2700.407	659.628	588.849	-2748.554	538.829	610.155	-2866.165	640.912	201.211	-2910.000	565.538	185.909	0.000	0.000	0.000	-2671.530	591.829	87.104	-3070.123	738.051	1080.610
-2846.681	870.433	1031.445	-2856.453	593.045	1048.731	-2698.250	660.028	589.347	-2746.239	539.187	610.433	-2860.502	640.931	200.529	-2903.466	565.452	184.277	-2970.287	608.891	84.340	-2664.270	591.974	87.879	-3068.645	737.866	1080.710
-2844.812	870.207	1030.747	-2854.894	592.909	1048.755	-2696.442	660.413	589.749	-2744.018	539.501	610.765	-2855.075	641.162	198.743	-2896.694	564.840	182.562	-2964.078	608.867	82.636	-2657.234	592.443	88.512	-3067.041	737.684	1080.694
-2843.253	869.999	1030.259	-2853.332	592.996	1048.739	-2694.536	660.800	590.122	-2741.793	539.806	611.010	-2848.409	640.957	197.665	-2890.915	565.196	181.625	-2959.764	609.513	82.687	-2649.970	592.777	89.205	-3065.515	737.434	1080.752
-2841.855	869.963	1029.963	-2851.607	592.970	1048.741	-2692.793	661.279	590.382	-2739.636	540.157	611.179	-2842.405	640.931	196.384	-2883.884	564.888	179.812	-2956.673	612.913	82.461	-2642.615	593.116	90.050	-3063.854	737.180	1080.764
-2840.628	870.079	1029.709	-2851.607	592.170	1048.514	-2691.097	661.626	590.792	-2737.413	540.568	611.186	-2836.018	640.809	195.475	-2877.009	564.441	178.269	0.000	0.000	0.000	-2636.387	593.581	89.849	-3062.268	736.963	1080.868
-2839.011	870.015	1029.314	-2850.166	592.459	1047.782	-2689.019	661.979	591.058	-2735.268	540.945	611.289	-2829.787	640.895	193.945	-2870.955	564.819	177.032	0.000	0.000	0.000	-2628.759	593.815	90.599	-3060.650	736.673	1080.912
-2837.537	870.073	1028.908	-2846.567	593.231	1047.657	-2687.258	662.420	591.317	-2732.936	541.214	611.126	-2822.813	640.550	192.868	-2863.506	564.413	175.073	0.000	0.000	0.000	-2620.999	594.221	91.393	-3059.001	736.498	1080.915
-2835.946	869.782	1028.483	-2844.674	593.226	1047.623	-2685.424	662.828	591.543	-2731.031	541.756	611.237	-2816.144	640.463	191.937	-2855.968	563.816	173.301	0.000	0.000	0.000	-2613.287	594.790	92.162	-3057.293	736.267	1080.917
-2834.816	869.904	1028.393	-2843.314	593.345	1047.138	-2683.487	663.207	591.717	-2728.985	542.103	611.263	-2810.071	640.598	190.246	-2850.056	564.269	172.387	0.000	0.000	0.000	-2605.449	595.217	93.144	-3055.635	735.962	1080.992
-2832.987	869.645	1027.756	-2841.601	593.279	1046.952	-2681.788	663.599	591.894	-2726.618	542.622	610.802	-2802.795	640.418	188.939	-2842.384	563.828	170.475	0.000	0.000	0.000	-2597.538	595.841	93.857	-3053.911	735.696	1081.046
-2831.150	869.404	1027.222	-2840.459	593.619	1045.982	-2679.894	663.966	592.044	-2724.631	542.971	610.728	-2796.270	640.396	187.580	-2834.450	563.230	168.571	0.000	0.000	0.000	-2589.734	596.550	94.517	-3052.037	735.414	1080.957
-2829.535	869.234	1026.837	-2838.684	593.476	1045.683	-2678.329	664.394	592.099	-2722.553	543.418	610.454	-2789.109	640.175	186.548	-2827.674	563.201	167.341	0.000	0.000	0.000	-2581.568	597.050	95.177	-3050.218	735.127	1080.905
-2827.923	869.190	1026.495	-2836.388	593.379	1045.333	-2676.522	664.718	592.183	-2720.524	543.895	610.202	-2782.134	640.072	185.118	-2820.302	563.236	165.801	0.000	0.000	0.000	-2573.326	597.483	96.396	-3048.400	734.866	1080.848
-2826.261	869.126	1026.101	-2834.373	593.107	1045.295	-2674.889	665.086	592.235	-2718.510	544.284	610.002	-2775.039	639.828	184.154	-2812.545	562.897	163.882	0.000	0.000	0.000	-2565.240	598.058	97.453	-3046.552	734.522	1080.838
-2824.607	869.057	1025.660	-2834.987	593.499	1046.143	-2673.843	665.794	591.660	-2716.542	544.683	609.785	-2765.091	640.027	183.424	-2806.155	562.748	161.744	0.000	0.000	0.000	-2556.904	598.679	98.449	-3044.727	734.254	1080.807
-2823.011	868.954	1025.277	-2833.182	593.113	1045.929	-2671.939	666.126	591.527	-2714.672	544.994	609.686	-2757.862	639.712	182.157	-2797.771	561.306	160.334	0.000	0.000	0.000	-2548.744	599.310	99.644	-3042.802	733.990	1080.713
-2821.040	868.625	1024.598	-2831.347	592.808	1045.626	-2670.302	666.516	591.384	-2711.912	544.918	609.922	-2750.636	639.613	180.849	-2787.859	558.917	159.503	0.000	0.000	0.000	-2540.483	600.295	100.407	-3040.804	733.685	1080.576
-2819.103	868.398	1024.066	-2829.177	592.944	1045.051	-2668.560	666.812	591.296	-2710.011	545.552	609.337	-2743.639	639.473	180.014	-2776.880	555.925	159.101	0.000	0.000	0.000	-2534.820	602.040	100.224	-3038.860	733.333	1080.509
-2817.295	868.285	1023.684	-2827.002	593.001	1044.327	-2666.604	667.161	591.163	-2708.211	546.094	608.742	-2736.202	639.404	178.748	-2765.300	552.677	158.977	0.000	0.000	0.000	-2526.489	602.547	101.821	-3036.848	732.992	1080.413
-2815.511	868.208	1023.293	-2824.959	592.808	1043.847	-2665.144	667.522	590.966	-2706.401	546.594	608.295	-2728.768	639.195	177.756	-2753.582	549.518	158.981	0.000	0.000	0.000	-2518.064	603.125	103.088	-3034.789	732.674	1080.318
-2813.005	867.672	1022.369	-2822.798	592.889	1043.171	-2663.499	667.915	590.819	-2704.596	546.979	607.831	-2721.603	639.387	176.414	-2742.190	546.793	158.962	0.000	0.000	0.000	-2509.622	603.922	104.582	-3032.656	732.323	1080.097
-2811.576	867.714	1022.291	-2820.719	592.484	1042.904	-2661.678	668.197	590.702	-2702.708	547.359	607.456	-2713.386	639.207	175.709	-2731.586	544.847	158.770	0.000	0.000	0.000	-2501.182	604.644	106.119	-3030.533	732.014	1079.941
-2809.347	867.231	1021.685	-2818.870	591.403	1043.247	-2660.289	668.486	590.427	-2700.798	547.855	606.751	-2706.030	639.201	174.456	-2722.236	544.026	158.255	0.000	0.000	0.000	-2492.832	605.417	107.850	-3028.478	731.728	1079.768
-2807.494	867.062	1021.207	-2816.658	591.415	1042.378	-2659.304	669.104	589.590	-2698.944	548.200	606.266	-2697.135	639.789	173.491	-2714.602	544.675	157.267	0.000	0.000	0.000	-2484.262	606.117	109.450	-3026.308	731.369	1079.713
-2805.421	866.817	1020.681	-2814.547	590.971	1042.229	-2657.663	669.427	589.280	-2697.195	548.505	605.802	-2689.663	639.807	172.274	-2706.464	544.185	156.712	0.000	0.000	0.000	-2475.994	606.878	111.368	-3024.152	731.018	1079.483
-2803.398	866.654	1020.250	-2812.213	590.946	1041.452	-2656.082	669.741	588.906	-2695.356	548.873	605.202	-2682.119	639.447	171.682	-2698.828	544.421	155.591	0.000	0.000	0.000	-2467.739	607.639	113.462	-3021.864	730.691	1079.201
-2801.376	866.526	1019.819	-2809.975	590.687	1040.842	-2654.484	670.089	588.500	-2693.508	549.180	604.538	-2674.070	639.775	171.045	-2691.244	544.839	154.535	0.000	0.000	0.000	-2459.498	608.315	115.731	-3019.580	730.357	1078.919
-2799.177	866.085	1019.264	-2807.732	590.326	1040.553	-2652.709	670.354	588.130	-2691.704	549.474	603.915	-2666.630	640.146	169.859	-2683.078	544.420	153.719	0.000	0.000	0.000	-2455.344	609.131	116.658	-3017.248	729.975	1078.733
-2796.490	865.469	1018.416	-2805.396	590.787	1040.063	-2651.278	670.672	587.614	-2690.018	549.711	603.377	-2661.573	638.703	169.919	-2675.447	544.065	151.837	0.000	0.000	0.000	-2447.103	609.734	119.137	-3014.935	729.624	1078.431
-2794.298	865.175	1018.008	-2803.167	589.456	1039.641	-2649.675	671.041	586.995	-2688.282	550.073	602.614	-2654.147	638.585	169.607	-2667.501	543.932	151.390	0.000	0.000	0.000	-2439.020	610.279	121.646	-3012.546	729.239	1078.224
-2792.230	864.994	1017.533	-2800.877	589.056	1039.165	-2648.595	671.648	586.130	-2686.397	550.506	601.688	-2647.331	638.955	168.833	-2659.958	544.121	150.063	0.000	0.000	0.000	-2430.976	610.841	124.224	-3010.177	728.885	1077.902
-2790.124	864.942	1017.097	-2798.310	588.976	1038.464	-2646.994	672.042	585.570	-2684.675	550.745	601.069	-2639.864	638.832	168.648	-2651.887	543.626	149.924	0.000	0.000	0.000	-2423.120	611.326	126.848	-3007.725	728.545	1077.590
-2787.791	864.572	1016.593	-2795.864	588.814	1037.841	-2645.098	672.349	585.024	-2683.000	550.950	600.399	-2632.577	638.798	167.898	-2644.443	543.693	149.144	-2719.550	609.772	36.051	-2415.321	611.685	129.524	-3005.283	728.202	1077.243
-2784.977	863.944	1015.748	-2793.536	588.282	1037.478	-2643.367	672.642	584.494	-2681.130	551.255	599.574	-2625.551	638.965	167.725	-2636.985	543.887	148.670	-2710.595	609.633	34.637	-2407.492	611.976	132.023	-3002.797	727.802	1076.966
-2782.307	863.338	1015.111	-2790.831	588.782	1036.776	-2641.838	673.258	583.640	-2679.290	551.462	598.846	-2618.377	638.974	167.681	-2629.477	543.794	148.564	-2701.664	609.269	33.030	-2399.878	612.265	134.545	-3000.230	727.358	1076.672
-2779.912	863.111	1014.594	-2788.406	587.262	1036.542	-2640.167	673.627	582.870	-2677.316	551.863	597.935	-2611.345	639.160	167.166	-2622.453	544.201	147.785	-2692.655	609.297	32.183	-2392.353	612.724	136.997	-2997.593	726.990	1076.288
-2777.648	862.961	1014.176	-2785.814	587.037	1035.778	-2638.426	673.938	582.177	-2675.442	552.117	597.179	-2604.089	639.012	167.190	-2615.113	544.410	147.990	-2684.218	609.243	31.420	-2384.822	612.904	139.462	-2994.918	726.573	1075.966
-2775.110	862.558	1013.574	-2783.209	586.535	1035.376	-2636.489	674.302	581.690	-2673.513	552.345	596.378	-2600.190	640.134	165.664	-2607.882	544.408	147.907	-2675.845	609.274	30.607	-2377.604	612.847	141.999	-2992.243	726.154	1075.582
-2772.106	861.832	1012.691	-2780.328	586.695	1034.240	-2634.734	674.660	581.109	-2671.614	552.557	595.693	-2593.955	640.074	165.832	-2600.806	544.660	147.437	-2667.394	609.047	29.485	-2370.399	613.052	144.323	-2989.510	725.762	1075.291
-2769.353	861.257	1012.056	-2777.818	586.079	1033.893	-2633.043	675.328	580.030	-2669.568	552.958	594.699	-2586.932	640.136	165.278	-2593.871	544.780	147.641	-2659.092	608.821	28.628	-2363.298	613.152	146.701	-2986.852	725.385	1074.948
-2766.865	861.103	1011.537	-2775.105	585.367	1033.584	-2631.192	675.720	579.347	-2667.399	553.295	593.820	-2580.457	640.088	165.617	-2587.040	544.976	147.785	-2651.016	608.612	27.971	-2356.394	613.084	149.042	-2984.127	724.909	1074.687
-2762.587	860.011	1009.804	-2772.276	584.785	1033.140	-2629.048	676.100	578.746	-2665.369	553.443	593.187	-2573.857	640.121	165.787	-2580.174	545.048	147.616	-2643.015	608.524	27.250	-2349.666	612.912	151.363	-2981.292	724.477	1074.310
-2761.793	860.536	1010.579	-2769.417	584.656	1032.160	-2627.199	676.518	578.228	-2663.301	553.607	592.614	-2567.528	640.403	165.834	-2573.630	545.314	147.060	-2635.382	608.619	26.713	-2342.940	612.687	153.760	-2978.419	724.035	1073.892
-2757.249	859.089	1008.749	-2766.572	584.144	1031.785	-2625.103	677.055	577.350	-2660.964	553.920	591.637	-2561.106	640.739	165.795	-2567.180	545.330	147.221	-2627.689	608.481	26.063	-2336.417	612.546	155.728	-2975.466	723.556	1073.599
-2755.648	859.216	1008.971	-2763.526	584.183	1030.785	-2623.005	677.521	576.577	-2658.725	554.205	590.833	-2554.982	640.900	166.122	-2560.810	545.638	147.709	-2620.322	608.649	25.672	-2330.280	612.558	157.699	-2972.532	723.099	1073.254
-2753.003	858.988	1008.410	-2760.474	583.679	1030.159	-2621.003	678.012	575.842	-2656.543	554.343	590.239	-2548.889	641.060	166.451	-2554.712	545.897	148.016	-2613.016	608.753	25.184	-2324.106	612.422	159.654	-2969.589	722.641	1072.871
-2750.453	858.758	1008.062	-2757.697	582.539	1030.266	-2618.732	678.420	575.308	-2654.252	554.610	589.451	-2542.676	641.232	166.166	-2549.033	546.443	148.227	-2606.054	608.920	24.916	-2318.102	612.216	161.488	-2966.538	722.215	1072.519
-2746.851	857.761	1007.008	-2754.602	582.380	1029.461	-2616.716	679.059	574.317	-2651.837	554.741	588.800	-2537.081	641.557	166.662	-2543.415	546.932	147.719	-2599.352	609.240	24.511	-2312.192	611.949	163.112	-2963.512	721.774	1072.135
-2742.524	856.771	1005.330	-2751.477	582.069	1028.688	-2614.380	679.468	573.775	-2649.448	555.162	587.820	-2531.359	641.812	166.826	-2537.591	547.262	147.778	-2592.847	609.488	24.185	-2306.510	611.583	164.626	-2960.531	721.258	1071.832
-2739.827	856.384	1004.852	-2748.199	582.117	1027.669	-2611.805	679.822	572.988	-2646.907	555.402	587.023	-2525.943	642.203	166.957	-2532.189	547.572	147.871	-2586.573	610.001	23.964	-2300.969	611.328	166.009	-2957.442	720.798	1071.522
-2738.372	856.789	1005.376	-2745.261	581.025	1027.821	-2609.695	680.240	572.299	-2644.565	555.523	586.354	-2520.824	642.472	167.244	-2526.709	547.772	147.860	-2580.731	610.433	23.673	-2295.764	611.016	167.300	-2954.344	720.325	1071.054
-2733.365	855.303	1003.432	-2741.962	580.645	1027.154	-2606.723	680.473	571.951	-2642.088	555.668	585.688	-2515.540	642.847	167.019	-2521.600	547.960	147.823	-2578.078	614.417	20.154	-2290.646	610.775	168.203	-2951.133	719.851	1070.619
-2730.579	855.080	1002.888	-2738.633	580.120	1026.670	-2604.196	680.707	571.482	-2639.298	555.963	584.795	-2510.776	643.165	167.078	-2517.381	548.894	147.530	-2572.833	613.243	19.424	-2285.748	610.605	169.056	-2947.920	719.335	1070.242
-2728.948	855.178	1003.350	-2735.405	579.851	1026.097	-2601.937	681.324	570.340	-2637.064	556.502	583.859	-2506.115	643.384	167.064	-2512.727	549.275	147.331	-2567.660	612.556	19.111	-2281.116	610.332	169.776	-2944.751	718.817	1069.848
-2725.834	854.693	1002.937	-2732.038	579.493	1025.564	-2599.585	681.614	569.555	-2634.272	556.427	583.189	-2501.634	643.569	166.991	-2508.355	549.658	147.315	-2562.670	612.516	18.777	-2276.782	610.148	170.261	-2941.497	718.351	1069.386
-2721.494	853.907	1001.453	-2728.686	578.776	1025.254	-2596.635	681.809	569.158	-2631.347	556.393	582.378	-2497.535	643.853	166.776	-2504.097	549.962	147.230	-2558.149	612.580	18.460	-2272.587	610.052	170.608	-2938.201	717.910	1068.913
-2719.713	854.089	1001.756	-2725.167	578.471	1024.625	-2593.820	681.906	568.711	-2628.466	556.280	581.862	-2493.397	644.185	166.195	-2500.308	550.257	146.934	-2553.944	612.822	17.989	-2268.802	610.090	170.846	-2934.913	717.426	1068.425
-2714.548	852.701	1000.005	-2721.583	578.166	1023.880	-2590.865	682.119	567.820	-2625.321	556.538	580.687	-2490.033	644.495	165.940	-2496.702	550.564	145.984	-2550.111	612.952	17.559	-2265.247	610.205	170.890	-2931.567	716.931	1067.998
-2711.716	852.504	999.692	-2717.860	578.146	1023.148	-2588.004	682.397	566.865	-2622.180	556.482	580.032	-2486.714	644.630	165.522	-2493.301	550.826	145.585	-2546.634	613.128	16.978	-2261.738	610.660	170.266	-2928.186	716.387	1067.570
-2708.702	852.359	999.302	-2714.349	577.465	1022.960	-2584.499	682.054	566.497	-2618.958	556.328	579.403	-2483.747	644.904	164.911	-2490.208	551.023	145.101	-2543.559	613.206	16.491	-2258.664	610.842	169.785	-2924.720	715.806	1067.017
-2706.756	852.396	999.947	-2710.648	576.820	1022.548	-2580.875	681.888	566.102	-2615.539	556.324	578.569	-2480.843	645.300	163.926	-2487.148	551.073	144.487	-2541.282	613.267	16.679	-2255.891	611.199	169.108	-2921.143	715.314	1066.458
-2701.622	851.258	998.200	-2706.852	576.508	1021.923	-2577.543	681.754	565.448	-2612.108	556.071	578.037	-2478.268	645.406	163.301	-2484.321	551.285	143.250	-2539.205	613.233	16.729	-2253.171	611.780	167.539	-2917.588	714.789	1066.015
-2698.833	850.954	998.025	-2703.117	576.119	1021.514	-2574.357	681.845	564.418	-2608.531	556.021	577.264	-2475.653	645.358	162.151	-2481.909	551.460	142.977	-2537.643	613.137	16.766	-2250.569	612.189	165.752	-2914.025	714.193	1065.600
-2695.333	850.632	997.533	-2699.093	576.046	1020.757	-2571.681	681.856	563.681	-2604.973	555.916	576.664	-2473.835	645.700	161.279	-2479.779	551.575	142.406	-2536.436	612.941	16.873	-2248.363	612.938	163.522	-2910.372	713.646	1065.113
-2691.482	849.968	996.732	-2695.322	575.176	1020.747	-2567.592	681.426	563.230	-2601.367	555.793	576.082	-2471.967	645.795	160.292	-2477.996	551.900	141.019	-2535.637	612.806	16.977	-2246.685	613.484	161.183	-2906.715	713.090	1064.719
-2688.277	849.736	996.586	-2691.508	574.408	1020.673	-2563.957	681.143	562.397	-2597.570	555.795	575.277	-2470.575	645.979	159.295	-2476.484	552.026	140.239	-2535.254	612.736	17.106	-2244.925	614.287	158.267	-2902.918	712.536	1064.344
-2685.062	849.493	996.313	-2687.356	574.235	1020.025	-2560.051	680.671	562.093	-2593.825	555.511	574.723	-2469.451	646.001	158.114	-2474.787	551.743	139.112	-2535.229	612.696	17.185	-2243.752	615.009	155.528	-2899.125	711.906	1063.970
-2682.963	849.844	996.962	-2683.122	574.027	1019.425	-2556.388	680.492	561.462	-2589.950	555.230	574.150	-2468.593	646.215	156.705	-2473.954	552.171	137.469	-2535.281	612.626	17.210	-2242.571	615.891	152.313	-2895.197	711.256	1063.530
-2677.524	848.428	995.363	-2679.182	573.078	1019.573	-2553.106	680.260	560.754	-2586.138	555.006	573.591	-2468.161	646.507	155.261	-2473.277	552.241	136.959	-2535.632	612.730	17.450	-2241.762	616.779	149.432	-2891.269	710.593	1063.154
-2674.095	848.128	994.919	-2674.973	572.641	1019.141	-2548.791	679.633	560.327	-2582.248	554.801	573.139	-2467.757	646.574	153.878	-2472.575	552.362	134.852	-2536.052	612.857	17.678	-2240.997	617.700	146.499	-2887.229	709.883	1062.807
-2671.326	847.969	995.310	-2670.506	572.336	1018.505	-2544.766	678.902	560.013	-2578.187	554.769	572.252	-2467.595	646.677	152.610	-2471.726	552.213	133.753	-2536.268	612.840	17.843	-2240.098	618.757	143.488	-2883.185	709.173	1062.454
-2666.423	847.291	993.985	-2666.195	572.101	1018.053	-2540.965	678.421	559.667	-2574.261	554.335	571.846	-2467.557	646.833	151.371	-2471.289	552.446	132.909	-2536.382	612.826	17.965	-2239.511	619.562	140.972	-2879.060	708.465	1062.095
-2662.808	846.830	993.891	-2661.796	571.538	1017.899	-2537.984	678.406	558.432	-2570.201	554.009	571.217	-2466.925	647.027	149.471	-2470.944	552.849	130.977	-2536.465	612.859	18.100	-2238.670	620.537	138.198	-2874.909	707.724	1061.818
-2659.068	846.437	993.569	-2657.559	570.438	1018.131	-2533.719	677.621	558.102	-2566.133	553.776	570.809	-2466.585	647.102	148.321	-2469.822	552.357	130.069	-2536.364	612.872	18.239	-2237.899	621.213	135.877	-2870.741	706.952	1061.499
-2654.475	845.665	992.970	-2652.975	570.176	1017.684	-2529.486	676.728	557.843	-2562.205	553.586	570.268	-2465.840	647.140	147.250	-2468.856	552.541	128.332	-2536.101	612.967	18.403	-2236.968	622.142	133.129	-2866.455	706.115	1061.195
-2651.112	845.573	992.805	-2648.468	569.743	1017.454	-2525.923	676.064	557.521	-2558.253	553.504	569.370	-2464.442	647.276	145.620	-2467.908	553.075	127.789	-2535.917	613.076	18.633	-2235.155	622.911	130.633	-2862.098	705.305	1060.853
-2648.731	848.544	992.246	-2643.910	568.989	1017.478	-2522.311	675.448	557.084	-2554.291	553.146	568.888	-2463.049	647.231	144.618	-2466.130	552.659	126.871	-2535.592	613.294	18.892	-2234.603	623.041	127.945	-2857.708	704.383	1060.520
-2644.044	847.795	991.717	-2639.059	568.754	1016.844	-2518.662	674.711	556.061	-2550.607	552.843	568.236	-2461.487	647.236	143.792	-2464.766	552.767	125.203	-2535.204	613.371	19.317	-2232.612	623.472	125.426	-2853.292	703.483	1060.273
-2640.205	847.508	991.403	-2634.450	568.104	1016.878	-2514.889	673.912	555.592	-2547.065	552.550	567.663	-2459.749	647.283	142.900	-2462.878	552.588	124.588	-2534.774	613.425	19.616	-2231.844	623.380	122.538	-2848.769	702.611	1059.959
-2636.393	847.238	991.320	-2629.601	567.954	1016.347	-2511.599	673.322	554.989	-2543.566	552.299	566.899	-2457.942	647.434	141.637	-2461.122	552.564	124.082	-2534.450	613.730	19.972	-2230.365	623.285	119.676	-2844.319	701.612	1059.761
-2631.553	846.240	990.927	-2624.757	567.399	1016.232	-2507.822	672.596	554.637	-2540.236	552.014	565.871	-2456.144	647.433	140.713	-2460.185	553.227	122.616	-2534.350	614.212	20.548	-2228.748	623.134	116.555	-2839.758	700.697	1059.514
-2626.821	845.583	990.652	-2620.129	566.273	1016.717	-2504.108	671.886	553.774	-2536.898	551.304	565.419	-2454.481	647.510	139.908	-2458.304	552.958	122.132	-2534.217	614.650	20.938	-2226.542	623.129	113.469	-2835.133	699.711	1059.303
-2623.047	845.343	990.809	-2615.104	565.998	1016.350	-2500.559	671.175	553.394	-2533.787	550.710	564.712	-2453.027	647.637	139.271	-2457.195	553.287	121.486	-2534.015	615.157	21.112	-2225.813	622.603	110.536	-2830.486	698.761	1059.108
-2618.269	844.452	990.703	-2610.115	565.503	1016.343	-2497.875	670.930	552.417	-2530.602	550.068	564.134	-2451.450	647.729	138.324	-2455.690	553.109	121.066	-2533.629	615.878	21.420	-2224.542	622.350	107.739	-2825.749	697.743	1058.913
-2613.541	843.677	990.371	-2605.181	564.787	1016.469	-2494.190	670.248	552.116	-2527.306	549.666	563.082	-2450.021	647.891	137.486	-2454.726	553.494	119.648	-2533.395	616.562	21.654	-2223.383	622.147	105.239	-2820.915	696.765	1058.779
-2608.764	843.066	990.540	-2600.093	564.345	1016.296	-2490.155	669.420	552.086	-2523.851	548.836	562.650	-2448.848	648.098	136.869	-2453.589	553.622	119.138	-2532.869	617.201	22.135	-2222.225	622.060	102.714	-2816.088	695.763	1058.770
-2604.311	842.411	990.549	-2595.072	563.832	1016.406	-2486.900	668.877	551.969	-2518.638	548.915	564.152	-2447.762	648.196	136.430	-2456.800	559.025	116.486	-2532.049	617.561	23.063	-2220.642	622.312	100.589	-2811.189	694.804	1058.863
-2598.947	841.316	990.469	-2589.726	563.828	1016.041	-2483.424	668.360	551.937	-2509.924	548.007	565.142	-2446.515	648.279	135.913	-2455.844	559.246	116.256	-2529.567	614.055	25.945	-2220.364	622.302	98.358	-2806.346	693.902	1058.896
-2593.301	840.232	990.300	-2584.892	562.585	1016.917	-2479.980	667.884	552.028	-2506.048	547.606	565.034	-2445.462	648.343	135.524	-2455.476	559.897	115.838	-2529.423	614.064	26.063	-2218.639	622.855	96.102	-2801.455	692.982	1058.984
-2588.987	839.655	990.688	-2579.907	561.785	1017.413	-2476.548	667.584	551.766	-2501.673	546.889	565.309	-2444.457	648.453	135.047	-2454.729	560.071	115.652	-2529.339	614.103	26.178	-2218.713	623.008	94.370	-2796.505	692.104	1059.223
-2584.402	838.974	991.252	-2574.756	561.248	1017.605	-2472.044	666.847	552.429	-2497.294	546.337	565.513	-2443.548	648.608	134.601	-2453.888	560.363	115.153	-2529.166	614.137	26.268	-2217.952	623.371	92.564	-2791.658	691.189	1059.504
-2578.597	837.594	991.373	-2569.573	560.852	1017.655	-2468.387	666.452	552.867	-2492.937	546.081	565.838	-2442.796	648.689	134.444	-2453.012	560.512	114.926	-2529.064	614.087	26.355	-2216.711	623.873	91.252	-2786.732	690.339	1059.758
-2573.591	836.460	991.825	-2564.539	559.612	1018.573	-2464.252	665.976	553.656	-2488.653	545.781	565.929	-2442.082	648.725	134.328	-2452.435	560.650	114.863	-2528.904	614.016	26.439	-2216.899	623.975	89.924	-2781.735	689.468	1060.157
-2568.414	835.451	992.080	-2559.590	558.735	1019.121	-2460.844	665.791	553.693	-2484.418	545.553	566.096	-2441.423	648.715	134.244	-2451.897	560.857	114.785	-2528.866	613.991	26.582	-2216.406	624.164	88.600	-2776.842	688.636	1060.481
-2563.375	834.482	992.805	-2554.576	558.018	1019.655	-2456.886	665.459	553.776	-2479.845	545.105	566.358	-2440.858	648.758	134.177	-2451.259	560.798	114.502	-2528.782	613.967	26.653	-2215.977	624.283	87.531	-2774.121	687.668	1060.667
-2558.703	833.426	993.563	-2549.706	556.580	1020.864	-2452.714	664.824	554.535	-2475.466	544.734	566.677	-2440.276	648.715	134.061	-2450.862	561.014	114.424	-2528.683	613.916	26.738	-2215.650	624.319	86.633	-2769.190	686.868	1061.139
-2553.145	832.008	994.075	-2544.681	555.871	1021.308	-2448.440	664.159	555.253	-2471.241	544.613	566.821	-2439.695	648.719	134.009	-2450.012	560.697	114.638	-2528.640	613.895	26.824	-2215.441	624.091	86.025	-2764.279	686.094	1061.561
-2546.565	827.523	995.112	-2539.704	554.958	1021.901	-2444.834	663.721	555.753	-2467.243	544.494	567.108	-2439.162	648.745	133.919	-2445.251	555.381	117.028	-2528.604	613.854	26.853	-2215.007	624.267	84.914	-2759.344	685.339	1062.016
-2540.972	825.965	995.671	-2534.760	553.733	1023.026	-2441.150	663.274	556.164	-2463.112	544.187	567.562	-2438.554	648.819	133.775	-2444.771	555.401	116.993	-2528.554	613.880	26.953	-2214.798	624.186	84.315	-2754.401	684.549	1062.398
-2535.552	824.562	996.115	-2529.852	552.362	1024.113	-2437.033	662.642	556.523	-2458.888	543.738	567.696	-2437.960	648.947	133.670	-2444.332	555.530	116.935	-2528.511	613.797	26.994	-2214.562	624.092	83.736	-2749.491	683.709	1062.926
-2530.662	823.159	997.100	-2524.762	551.659	1024.532	-2433.007	661.874	556.954	-2454.627	543.406	567.869	-2437.099	649.273	133.498	-2443.945	555.637	116.883	-2528.381	613.764	26.997	-2213.691	624.283	83.219	-2744.513	682.910	1063.327
-2525.707	821.911	998.197	-2519.751	550.604	1025.429	-2429.390	661.373	557.133	-2450.943	543.072	568.110	-2434.220	648.004	134.949	-2443.522	555.627	116.830	-2528.371	613.741	27.064	-2213.513	624.298	82.701	-2739.643	682.091	1063.801
-2520.850	820.454	999.334	-2514.967	548.908	1026.703	-2426.168	660.867	557.192	-2447.277	542.843	568.184	-2433.849	647.997	134.699	-2443.412	555.800	116.729	-2528.353	613.725	27.078	-2213.999	624.201	82.066	-2734.782	681.274	1064.260
-2515.779	819.047	1000.151	-2510.018	547.923	1027.384	-2422.722	660.226	557.221	-2443.776	542.545	568.130	-2433.535	647.968	134.595	-2443.057	555.809	116.666	-2528.306	613.749	27.176	-2213.162	624.470	81.643	-2729.923	680.499	1064.689
-2510.925	817.672	1001.128	-2504.939	547.249	1027.787	-2419.117	659.383	557.181	-2440.565	542.337	567.751	-2433.310	647.965	134.488	-2442.793	555.742	116.650	-2528.300	613.762	27.177	-2213.698	624.396	80.987	-2725.074	679.672	1065.174
-2505.805	816.365	1001.997	-2500.281	545.653	1028.989	-2416.092	658.777	557.011	-2437.219	541.823	567.570	-2433.140	647.897	134.373	-2442.535	555.699	116.638	-2528.236	613.745	27.178	-2213.504	624.553	80.424	-2720.257	678.863	1065.599
-2501.004	814.934	1003.272	-2495.447	544.642	1029.719	-2413.226	658.265	556.885	-2434.220	541.409	567.401	-2432.909	647.864	134.171	-2442.272	555.618	116.591	-2528.195	613.788	27.095	-2213.339	624.595	79.962	-2715.470	677.976	1066.084
-2496.110	813.717	1004.224	-2490.781	543.327	1030.921	-2410.529	657.760	556.694	-2431.554	541.041	567.055	-2432.666	647.798	133.997	-2441.819	555.227	116.422	-2528.222	613.868	27.044	-2213.255	624.628	79.627	-2710.730	677.110	1066.549
-2490.453	812.085	1004.779	-2486.121	541.945	1031.911	-2407.994	657.333	556.032	-2428.921	540.642	566.821	-2432.523	647.740	133.892	-2441.705	555.169	116.312	-2528.257	614.020	26.993	-2213.156	624.647	79.286	-2705.947	676.219	1066.944
-2485.406	810.964	1005.694	-2481.280	541.325	1032.112	-2405.400	656.906	555.261	-2426.740	540.188	566.598	-2432.283	647.669	133.767	-2441.439	555.009	116.166	-2528.348	614.393	26.864	-2213.056	624.706	78.855	-2701.173	675.322	1067.409
-2480.470	809.800	1006.729	-2476.539	540.429	1032.735	-2403.285	656.452	554.858	-2424.206	539.473	566.346	-2432.128	647.624	133.628	-2441.293	554.872	116.088	-2528.385	614.735	26.733	-2212.320	624.914	78.629	-2696.452	674.398	1067.815
-2475.581	808.815	1007.984	-2471.895	539.148	1033.573	-2401.043	656.029	554.438	-2422.059	538.910	565.999	-2431.999	647.559	133.574	-2441.246	554.812	115.918	-2528.431	615.075	26.578	-2212.258	624.892	78.344	-2691.760	673.549	1068.217
-2472.966	809.415	1009.953	-2467.205	538.272	1034.141	-2399.038	655.670	554.061	-2419.960	538.406	565.822	-2431.743	647.520	133.489	-2440.990	554.548	115.866	-2528.470	615.626	26.402	-2212.265	624.865	78.180	-2687.138	672.625	1068.671
-2467.981	808.310	1010.698	-2462.487	537.826	1034.306	-2397.204	655.215	553.597	-2418.385	537.942	565.516	-2431.557	647.443	133.200	-2441.109	554.758	115.258	-2528.580	616.060	26.250	-2212.220	624.819	78.011	-2682.506	671.782	1069.094
-2460.476	805.745	1010.178	-2457.942	536.913	1034.858	-2395.294	654.703	553.287	-2416.542	537.369	565.350	-2431.456	647.384	133.136	-2441.335	554.897	114.957	-2528.721	616.502	26.078	-2212.907	624.586	77.821	-2677.930	670.946	1069.494
-2456.057	805.131	1011.290	-2453.540	535.685	1035.698	-2393.365	654.263	552.830	-2414.886	536.936	564.773	-2431.366	647.330	133.068	-2441.306	555.005	114.307	-2528.652	616.709	26.035	-2212.930	624.532	77.711	-2673.371	670.001	1069.979
-2451.609	804.500	1012.268	-2448.914	535.021	1035.946	-2391.728	653.913	552.384	-2412.812	536.039	565.112	-2431.170	647.304	133.016	-2441.259	554.838	114.283	-2528.853	617.221	25.892	-2212.920	624.469	77.675	-2668.766	669.194	1070.493
-2447.092	804.043	1013.086	-2444.259	534.577	1035.996	-2390.472	653.553	552.062	-2411.144	535.598	564.940	-2431.254	647.191	132.938	-2441.307	554.734	114.189	-2528.984	617.592	25.702	-2212.987	624.368	77.616	-2664.186	668.363	1070.912
-2442.364	803.500	1013.847	-2439.827	533.618	1036.650	-2389.285	653.309	551.665	-2409.782	535.262	564.596	-2431.434	647.160	132.592	-2441.210	554.583	114.139	-2529.003	617.552	25.700	-2212.980	624.315	77.613	-2659.717	667.485	1071.502
-2438.032	802.994	1014.941	-2435.290	532.893	1036.923	-2388.055	653.081	551.382	-2408.234	534.907	564.412	-2433.532	646.722	132.071	-2441.259	554.447	114.015	-2528.943	617.278	25.791	-2213.038	624.244	77.625	-2655.223	666.709	1072.076
-2432.875	802.432	1015.534	-2430.854	532.284	1037.320	-2386.927	652.885	551.064	-2406.814	534.560	564.284	-2433.053	646.457	132.546	-2441.177	554.207	114.040	-2528.817	616.863	25.949	-2213.041	624.202	77.599	-2650.711	665.975	1072.598
-2428.455	802.295	1016.097	-2426.334	531.962	1037.467	-2385.057	652.436	550.935	-2405.104	534.055	564.175	-2432.934	646.316	132.568	-2441.322	554.224	113.968	-2528.797	616.879	25.995	-2212.448	624.346	77.717	-2646.274	665.223	1073.229
-2424.266	802.029	1016.833	-2421.937	531.036	1037.975	-2383.415	652.033	550.937	-2403.350	533.589	564.110	-2432.942	646.186	132.632	-2451.009	565.668	108.328	-2528.882	617.045	25.913	-2213.153	624.122	77.672	-2641.780	664.553	1073.879
-2419.897	801.759	1017.780	-2417.550	530.326	1038.400	-2381.877	651.546	551.018	-2401.670	533.026	564.030	-2432.839	646.074	132.712	-2450.472	565.292	108.514	-2528.820	617.002	25.956	-2213.178	624.069	77.697	-2637.336	663.885	1074.517
-2415.668	801.639	1018.885	-2413.004	530.153	1038.266	-2380.616	651.245	551.012	-2400.071	532.565	563.937	-2433.008	645.917	132.707	-2450.814	565.494	108.378	-2528.907	617.277	25.850	-2213.238	624.006	77.761	-2632.925	663.243	1075.167
-2411.185	801.366	1019.691	-2408.683	529.551	1038.739	-2379.313	650.955	550.938	-2398.730	532.194	563.831	-2432.762	645.790	132.809	-2450.870	565.382	108.429	-2528.993	617.879	25.695	-2212.645	624.122	77.919	-2628.492	662.630	1075.896
-2406.839	801.052	1020.383	-2404.303	528.937	1039.029	-2378.049	650.695	550.906	-2407.199	533.772	561.455	-2432.843	645.654	132.892	-2450.778	565.156	108.471	-2529.335	618.992	25.251	-2212.691	624.043	77.954	-2624.123	662.073	1076.509
-2402.771	800.989	1021.305	-2399.871	527.941	1039.658	-2376.788	650.428	550.994	-2405.496	533.408	561.464	-2432.722	645.540	132.959	-2450.426	564.528	108.712	-2529.942	620.002	24.607	-2212.743	624.019	77.980	-2619.711	661.560	1077.205
-2398.354	800.746	1022.165	-2394.724	527.128	1039.976	-2375.549	650.171	550.995	-2403.441	533.133	561.433	-2432.781	645.414	133.002	-2441.421	553.386	114.002	-2530.731	620.859	23.835	-2212.813	623.956	78.044	-2615.345	661.085	1077.989
-2393.913	800.559	1022.853	-2388.709	526.610	1039.975	-2374.313	649.839	550.925	-2401.241	533.017	560.943	-2432.767	645.318	133.068	-2441.510	553.254	113.963	-2531.619	621.514	23.009	-2212.842	623.900	78.057	-2611.022	660.648	1078.633
-2389.685	800.286	1023.524	-2380.369	525.466	1040.931	-2373.057	649.499	550.903	-2399.412	532.378	561.350	-2432.575	645.180	133.185	-2441.321	552.946	114.109	-2532.521	621.917	22.201	-2212.907	623.869	78.112	-2606.654	660.281	1079.282
-2385.705	800.208	1024.511	-2375.817	524.673	1041.590	-2371.652	649.052	550.824	-2397.887	531.546	562.029	-2432.531	645.134	133.185	-2441.503	552.943	114.116	-2533.356	622.020	21.486	-2212.968	623.818	78.096	-2602.232	659.910	1079.933
-2381.089	799.819	1024.923	-2371.894	524.238	1041.821	-2370.017	648.489	550.738	-2395.973	530.900	562.037	-2432.323	645.030	133.342	-2441.557	552.918	114.115	-2534.039	621.772	20.937	-2212.988	623.774	78.089	-2597.892	659.549	1080.554
-2376.909	799.437	1025.716	-2367.707	523.807	1041.774	-2368.825	648.226	550.380	-2394.311	530.315	562.077	-2432.350	644.935	133.430	-2441.491	552.756	114.175	-2534.487	621.124	20.625	-2212.993	623.703	78.071	-2593.481	659.205	1081.201
-2372.653	799.043	1026.556	-2363.669	523.132	1042.308	-2367.632	647.955	550.186	-2392.630	529.740	562.114	-2432.393	644.831	133.445	-2444.591	557.413	112.137	-2534.617	620.028	20.626	-2213.019	623.611	78.055	-2589.122	658.893	1081.763
-2367.489	798.205	1027.152	-2359.566	522.448	1042.695	-2366.534	647.701	549.966	-2390.979	529.085	562.025	-2432.145	644.768	133.610	-2441.651	552.861	114.160	-2534.345	618.432	21.012	-2212.973	623.550	77.955	-2584.798	658.605	1082.348
-2363.326	797.848	1027.823	-2355.521	521.703	1043.301	-2365.453	647.442	549.647	-2391.066	529.733	562.523	-2432.105	644.749	133.644	-2441.769	552.909	114.242	-2533.589	616.289	21.855	-2212.947	623.492	77.847	-2580.482	658.372	1082.868
-2359.629	797.791	1028.742	-2351.522	521.564	1043.095	-2364.589	647.278	549.341	-2390.173	529.458	562.547	-2431.866	644.642	133.827	-2441.502	552.730	114.364	-2532.264	613.549	23.230	-2213.506	623.317	77.638	-2576.183	658.214	1083.399
-2354.991	797.312	1029.324	-2347.647	521.150	1043.292	-2363.639	647.092	549.094	-2393.571	531.580	563.243	-2431.741	644.573	133.942	-2441.474	552.651	114.711	-2532.376	613.639	23.290	-2213.411	623.279	77.449	-2571.907	658.027	1084.023
-2350.501	796.748	1030.116	-2343.582	520.453	1043.744	-2362.547	646.944	548.643	-2392.497	531.230	563.228	-2431.365	644.489	134.103	-2441.279	552.531	114.874	-2532.392	613.686	23.379	-2213.275	623.304	77.179	-2567.567	657.957	1084.442
-2346.315	796.239	1031.031	-2339.590	519.734	1044.305	-2361.079	646.572	548.596	-2391.418	530.978	563.123	-2431.554	644.438	134.166	-2441.239	552.616	114.916	-2532.421	613.694	23.512	-2213.162	623.288	76.962	-2563.269	657.835	1084.893
-2341.268	795.591	1031.329	-2335.341	519.533	1043.932	-2359.694	646.275	548.577	0.000	0.000	0.000	-2431.202	644.382	134.358	-2441.165	552.539	115.146	-2532.413	613.711	23.624	-2213.063	623.287	76.688	-2558.906	657.780	1085.211
-2336.817	795.025	1032.017	-2331.462	519.115	1044.212	-2358.467	646.006	548.598	0.000	0.000	0.000	-2430.878	644.332	134.571	-2443.686	556.911	113.169	-2532.435	613.753	23.708	-2212.923	623.355	76.426	-2554.619	657.660	1085.631
-2333.004	794.442	1033.303	-2327.282	518.703	1044.312	-2357.308	645.819	548.573	0.000	0.000	0.000	-2430.728	644.250	134.618	-2449.733	562.441	110.086	-2531.843	613.568	23.921	-2212.772	623.480	76.114	-2550.273	657.634	1085.978
-2328.125	793.849	1033.669	-2323.131	518.179	1044.543	-2356.008	645.687	548.628	0.000	0.000	0.000	-2430.392	644.181	134.824	-2449.558	562.736	109.996	-2531.073	613.109	24.333	-2212.380	623.017	76.263	-2545.998	657.580	1086.331
-2323.336	793.165	1034.409	-2319.086	517.742	1044.700	-2354.515	645.517	548.664	0.000	0.000	0.000	-2430.131	644.177	134.979	-2449.633	562.774	110.117	-2531.267	613.301	24.553	-2213.108	622.752	75.963	-2541.679	657.592	1086.638
-2318.502	792.132	1035.111	-2315.048	517.334	1044.876	-2354.667	645.784	548.787	0.000	0.000	0.000	-2429.833	644.070	135.110	-2448.204	562.052	110.896	-2531.239	613.363	24.667	-2213.062	622.702	75.758	-2537.328	657.593	1086.890
-2314.399	791.967	1036.026	-2311.039	517.029	1045.011	-2353.617	645.761	548.665	0.000	0.000	0.000	-2429.772	644.048	135.256	-2448.323	563.180	111.086	-2531.252	613.349	24.808	-2213.029	622.687	75.540	-2533.041	657.616	1087.154
-2309.845	791.320	1036.635	-2306.916	516.882	1044.594	-2351.392	646.763	548.445	0.000	0.000	0.000	-2429.438	643.959	135.369	-2447.820	562.246	111.067	-2531.164	613.309	24.940	-2212.878	622.712	75.187	-2528.753	657.615	1087.330
-2308.494	790.501	1036.674	-2303.206	516.165	1044.857	-2350.180	646.741	548.328	0.000	0.000	0.000	-2429.120	643.883	135.622	-2447.730	562.297	111.316	-2531.089	613.281	25.060	-2212.743	622.692	74.866	-2524.395	657.595	1087.530
-2303.104	789.384	1037.062	-2299.229	515.688	1045.017	-2347.622	646.538	548.373	0.000	0.000	0.000	-2428.753	643.813	135.922	-2447.367	562.069	111.531	-2531.065	613.374	25.166	-2212.566	622.647	74.556	-2520.083	657.573	1087.665
-2298.672	788.954	1037.708	-2295.118	515.336	1044.963	-2345.717	645.317	548.888	0.000	0.000	0.000	-2428.682	643.754	136.005	-2447.569	563.126	111.753	-2530.980	613.319	25.295	-2212.436	622.620	74.289	-2515.715	657.605	1087.732
-2294.720	788.797	1037.937	-2291.078	515.170	1044.696	-2344.519	645.331	548.725	0.000	0.000	0.000	-2428.312	643.723	136.188	-2447.047	562.130	111.739	-2530.976	613.377	25.442	-2212.242	622.663	73.925	-2511.429	657.589	1087.852
-2289.953	788.168	1039.062	-2287.131	514.660	1044.667	-2343.233	645.395	548.210	0.000	0.000	0.000	-2427.926	643.651	136.435	-2446.614	561.899	112.065	-2530.927	613.392	25.667	-2212.668	622.577	73.329	-2507.052	657.633	1087.849
-2283.691	786.727	1039.916	-2283.139	514.198	1044.618	-2341.485	645.415	547.730	0.000	0.000	0.000	-2427.743	643.608	136.609	-2446.543	561.942	112.187	-2530.889	613.390	25.728	-2212.569	622.558	73.152	-2502.698	657.686	1087.800
-2279.627	786.683	1039.833	-2279.214	513.902	1044.362	-2340.965	645.569	548.284	0.000	0.000	0.000	-2427.455	643.622	136.701	-2446.265	561.890	112.382	-2530.855	613.429	25.862	-2212.493	622.543	72.992	-2498.409	657.678	1087.879
-2275.413	786.286	1040.239	-2275.139	513.591	1044.069	-2339.505	645.512	547.791	0.000	0.000	0.000	-2427.354	643.555	136.789	-2446.098	561.863	112.714	-2530.779	613.336	26.044	-2212.400	622.494	72.845	-2494.021	657.704	1087.802
-2271.332	786.107	1040.130	-2271.319	513.084	1043.958	-2337.929	645.292	547.599	0.000	0.000	0.000	-2426.992	643.459	137.003	-2446.145	561.976	112.716	-2530.768	613.402	26.135	-2212.338	622.447	72.671	-2489.625	657.769	1087.704
-2266.282	785.629	1040.663	-2267.338	512.545	1043.815	-2336.266	645.119	547.427	0.000	0.000	0.000	-2427.803	643.795	136.509	-2446.142	562.879	112.989	-2530.662	613.343	26.246	-2212.247	622.409	72.557	-2485.209	657.840	1087.589
-2260.796	784.539	1041.088	-2269.667	512.288	1044.003	-2334.316	644.903	547.160	0.000	0.000	0.000	-2426.623	643.969	136.839	-2445.782	561.851	112.989	-2530.686	613.439	26.396	-2212.229	622.310	72.460	-2480.789	657.903	1087.516
-2256.243	784.281	1041.251	-2264.327	512.014	1043.519	-2332.822	644.814	546.867	0.000	0.000	0.000	-2426.147	643.906	137.208	-2445.861	562.861	113.165	-2530.514	613.294	26.553	-2212.133	622.295	72.266	-2476.325	658.033	1087.370
-2252.218	784.119	1041.174	-2259.969	511.393	1043.479	-2331.270	644.722	546.602	0.000	0.000	0.000	-2425.864	643.806	137.603	-2445.639	562.775	113.316	-2530.492	613.344	26.676	-2212.089	622.255	72.158	-2471.871	658.177	1087.181
-2247.315	783.572	1041.232	-2256.111	510.725	1043.464	-2329.446	644.725	546.401	0.000	0.000	0.000	-2425.967	644.068	137.850	-2445.437	562.767	113.502	-2530.460	613.316	26.730	-2212.027	622.216	72.069	-2467.458	658.315	1086.999
-2242.124	782.923	1041.408	-2251.746	510.677	1042.702	-2327.802	644.656	546.213	0.000	0.000	0.000	-2425.668	644.041	138.103	-2445.637	563.098	114.037	-2530.424	613.342	26.883	-2212.009	622.170	71.969	-2463.007	658.453	1086.840
-2237.257	782.505	1041.559	-2247.769	510.303	1042.449	-2326.053	644.775	545.368	0.000	0.000	0.000	-2425.221	644.005	138.374	-2445.641	563.222	114.376	-2530.429	613.392	26.974	-2211.958	622.080	71.848	-2458.527	658.633	1086.594
-2232.964	782.475	1041.352	-2243.538	510.099	1041.784	-2324.150	644.792	544.877	0.000	0.000	0.000	-2424.879	644.050	138.559	-2445.068	562.047	114.656	-2530.382	613.414	27.061	-2211.905	622.049	71.774	-2454.038	658.779	1086.318
-2228.427	782.246	1040.962	-2239.706	509.401	1041.788	-2322.323	644.791	544.413	0.000	0.000	0.000	-2424.470	644.042	138.791	-2445.549	563.437	115.303	-2530.314	613.444	27.187	-2211.835	622.003	71.649	-2449.487	658.953	1086.026
-2223.702	782.042	1040.342	-2235.778	508.837	1041.679	-2320.179	644.499	544.105	0.000	0.000	0.000	-2424.129	644.026	139.136	-2444.790	562.171	115.476	-2530.230	613.413	27.240	-2211.515	622.155	71.470	-2444.940	659.100	1085.820
-2218.264	781.303	1040.831	-2231.256	508.897	1040.751	-2318.071	644.302	544.029	0.000	0.000	0.000	-2423.748	644.039	139.411	-2444.637	562.305	115.783	-2530.263	613.521	27.427	-2211.309	622.168	71.358	-2440.390	659.270	1085.572
-2213.471	781.099	1040.662	-2227.052	508.699	1040.235	-2315.767	643.936	543.847	0.000	0.000	0.000	-2423.417	644.135	139.638	-2444.593	562.551	115.901	-2530.277	613.584	27.502	-2210.905	622.068	71.392	-2435.810	659.473	1085.258
-2209.162	781.285	1039.871	-2223.066	508.225	1039.913	-2313.428	643.549	543.624	0.000	0.000	0.000	-2422.926	644.149	139.854	-2444.395	562.602	116.128	-2530.245	613.616	27.635	-2210.665	622.173	71.212	-2431.156	659.694	1084.916
-2204.373	781.039	1039.436	-2218.896	507.866	1039.452	-2310.646	643.073	543.201	0.000	0.000	0.000	-2422.513	644.174	140.115	-2444.270	562.841	116.340	-2530.249	613.683	27.798	-2210.591	622.143	71.038	-2426.514	659.901	1084.546
-2199.703	781.060	1038.539	-2214.807	507.564	1039.171	-2307.753	642.379	542.510	0.000	0.000	0.000	-2422.047	644.258	140.360	-2444.291	563.817	116.621	-2530.264	613.731	27.931	-2210.531	622.123	70.862	-2421.845	660.038	1084.270
-2194.019	780.391	1038.770	-2210.207	507.623	1038.172	-2306.989	643.541	542.726	0.000	0.000	0.000	-2421.553	644.264	140.659	-2443.719	562.908	116.742	-2530.245	613.810	28.044	-2210.447	622.053	70.673	-2417.137	660.209	1083.945
-2189.042	780.302	1038.407	-2205.997	507.282	1037.592	-2305.247	643.829	542.636	0.000	0.000	0.000	-2421.062	644.318	140.891	-2443.544	562.826	117.152	-2530.192	613.814	28.130	-2210.289	622.026	70.415	-2412.375	660.387	1083.613
-2184.679	780.644	1037.238	-2201.903	506.914	1037.411	-2302.907	643.753	542.339	0.000	0.000	0.000	-2420.685	644.435	141.207	-2443.306	563.109	117.605	-2530.240	613.946	28.293	-2210.170	621.992	70.257	-2407.549	660.600	1083.236
-2180.218	780.839	1036.255	-2197.681	506.609	1036.917	-2300.162	643.659	541.720	0.000	0.000	0.000	-2420.312	644.579	141.522	-2443.329	564.145	118.217	-2530.270	614.047	28.524	-2210.207	622.078	70.118	-2402.762	660.786	1082.864
-2174.666	780.481	1035.972	-2192.979	506.642	1035.810	-2297.242	643.468	541.150	0.000	0.000	0.000	-2419.692	644.632	141.831	-2443.010	564.292	118.677	-2530.255	614.148	28.627	-2210.097	622.087	69.894	-2397.931	660.937	1082.483
-2168.894	779.985	1036.013	-2188.375	506.443	1035.015	-2294.717	643.497	540.933	0.000	0.000	0.000	-2419.123	644.646	142.139	-2442.813	564.507	119.115	-2530.228	614.180	28.749	-2209.844	621.916	69.736	-2393.074	661.106	1082.096
-2164.302	780.313	1034.806	-2184.116	506.100	1034.674	-2292.001	643.534	540.325	0.000	0.000	0.000	-2418.462	644.615	142.459	-2442.378	564.633	119.490	-2530.163	614.236	28.902	-2209.847	622.056	69.487	-2388.162	661.356	1081.594
-2159.150	780.332	1034.276	-2179.767	505.914	1034.267	-2289.378	643.681	540.090	0.000	0.000	0.000	-2417.448	644.377	142.596	-2442.158	564.782	119.751	-2530.041	614.315	28.996	-2209.719	622.038	69.277	-2383.172	661.593	1081.112
-2154.384	780.605	1033.406	-2175.237	505.682	1033.491	-2286.459	643.587	539.640	0.000	0.000	0.000	-2416.509	644.169	142.785	-2441.442	563.581	120.120	-2529.977	614.379	29.124	-2209.547	622.075	68.963	-2378.170	661.867	1080.565
-2148.343	780.179	1033.022	-2170.331	505.770	1032.397	-2283.548	643.549	539.092	0.000	0.000	0.000	-2416.645	644.937	143.337	-2440.868	563.481	120.405	-2529.896	614.428	29.355	-2209.403	622.044	68.732	-2373.084	662.128	1079.999
-2143.401	780.242	1032.012	-2165.920	505.390	1032.240	-2280.671	643.659	538.776	0.000	0.000	0.000	-2415.998	644.888	143.692	-2440.370	563.399	121.114	-2529.859	614.516	29.532	-2209.304	621.982	68.549	-2368.029	662.317	1079.388
-2137.938	780.247	1031.596	-2161.071	505.356	1031.281	-2277.764	643.566	538.371	0.000	0.000	0.000	-2415.364	644.902	144.175	-2440.347	563.762	121.709	-2529.757	614.563	29.772	-2209.225	621.903	68.352	-2362.928	662.537	1078.665
-2133.053	780.630	1030.488	-2156.154	505.408	1030.643	-2274.820	643.761	537.972	0.000	0.000	0.000	-2414.749	644.893	144.548	-2439.992	563.805	122.344	-2529.646	614.613	30.031	-2209.073	621.880	68.094	-2357.716	662.813	1077.939
-2127.456	780.523	1029.803	-2151.238	505.500	1029.887	-2271.745	643.692	537.607	0.000	0.000	0.000	-2414.120	644.833	144.965	-2439.603	563.723	122.875	-2529.516	614.615	30.252	-2208.936	621.843	67.822	-2352.521	663.133	1077.133
-2121.573	780.257	1029.388	-2146.198	505.480	1028.829	-2268.570	643.555	537.183	0.000	0.000	0.000	-2413.548	644.864	145.351	-2443.314	563.704	120.964	-2529.398	614.621	30.632	-2208.810	621.817	67.589	-2347.250	663.452	1076.254
-2115.418	779.977	1028.976	-2141.553	505.250	1028.393	-2265.380	643.543	536.806	0.000	0.000	0.000	-2412.807	644.770	145.780	-2442.456	564.043	120.929	-2529.264	614.520	31.041	-2208.667	621.794	67.350	-2342.028	663.767	1075.367
-2110.288	780.344	1027.917	-2136.768	505.073	1027.900	-2262.104	643.396	536.444	0.000	0.000	0.000	-2412.079	644.582	146.277	-2441.930	563.951	121.530	-2529.359	614.598	31.736	-2208.525	621.764	67.097	-2336.678	664.082	1074.425
-2104.304	780.330	1027.281	-2131.501	505.258	1026.790	-2259.193	643.555	536.441	0.000	0.000	0.000	-2411.249	644.346	146.712	-2440.576	564.304	122.373	-2529.452	614.625	32.510	-2207.780	621.847	66.882	-2331.322	664.351	1073.493
-2098.406	780.263	1026.305	-2126.538	505.091	1026.193	-2255.156	643.016	535.457	0.000	0.000	0.000	-2410.685	644.157	147.177	-2440.916	563.547	122.950	-2529.267	614.469	33.010	-2207.154	621.676	66.938	-2325.872	664.689	1072.447
-2091.872	779.822	1026.152	-2121.926	504.743	1026.021	-2251.485	642.662	535.191	0.000	0.000	0.000	-2409.828	643.842	147.680	-2440.385	563.181	123.745	-2529.165	614.368	33.569	-2207.037	621.629	66.751	-2320.411	664.993	1071.426
-2086.369	779.920	1025.258	-2115.669	505.116	1024.751	-2250.228	646.033	534.021	0.000	0.000	0.000	-2409.318	643.606	148.401	-2440.234	562.492	124.845	-2529.041	614.227	34.267	-2206.933	621.587	66.564	-2314.903	665.349	1070.390
-2080.975	780.083	1024.392	-2110.201	505.337	1023.825	-2246.551	645.641	533.602	-2287.254	524.957	558.909	-2408.617	643.302	148.981	-2439.442	562.125	125.520	-2528.870	614.010	34.926	-2206.865	621.576	66.344	-2309.360	665.723	1069.362
-2074.351	779.373	1024.087	-2104.942	505.180	1023.282	-2242.840	645.480	533.008	-2283.820	524.666	559.279	-2407.885	642.975	149.617	-2438.768	561.847	126.115	-2528.703	613.903	35.745	-2206.799	621.574	66.143	-2303.859	666.070	1068.438
-2068.481	779.151	1023.423	-2100.030	504.859	1023.081	-2238.639	644.991	532.473	-2280.048	524.728	559.054	-2407.068	642.625	150.325	-2438.089	561.515	126.761	-2528.875	613.974	36.909	-2206.685	621.581	65.883	-2298.310	666.465	1067.428
-2062.793	779.022	1022.807	-2094.474	504.972	1021.986	-2235.077	644.824	531.925	-2273.439	526.789	557.474	-2406.279	642.311	151.041	-2437.395	560.970	127.879	-2528.677	613.849	37.759	-2206.505	621.618	65.566	-2292.794	666.833	1066.593
-2057.028	778.764	1022.007	-2089.106	505.129	1021.162	-2231.770	644.886	531.696	-2269.482	526.505	557.342	-2405.272	641.907	151.791	-2435.482	561.578	128.531	-2528.431	613.831	38.660	-2206.358	621.587	65.312	-2287.264	667.207	1065.764
-2050.483	778.035	1021.697	-2083.801	504.997	1020.660	-2226.853	644.053	531.032	-2265.406	526.148	557.287	-2404.263	641.467	152.541	-2434.760	561.350	129.250	-2528.106	613.652	39.603	-2206.119	621.577	64.868	-2281.754	667.516	1065.088
-2045.057	777.850	1021.051	-2078.677	504.824	1020.209	-2222.407	643.482	530.188	-2261.048	525.830	557.117	-2403.280	641.133	153.274	-2435.125	559.821	130.519	-2528.263	613.952	41.087	-2205.927	621.401	64.632	-2276.206	667.804	1064.422
-2039.630	777.987	1020.146	-2073.293	504.929	1019.453	-2218.645	643.401	530.072	-2256.708	525.430	556.916	-2402.155	640.627	154.084	-2434.375	559.500	131.321	-2528.007	613.911	42.203	-2206.003	621.572	64.586	-2270.684	668.102	1063.751
-2033.658	777.536	1019.602	-2067.973	505.067	1018.694	-2214.202	643.096	529.623	-2252.164	525.157	556.628	-2401.226	640.247	154.879	-2433.432	558.913	132.428	-2527.588	613.740	43.295	-2206.016	621.738	64.372	-2265.115	668.434	1063.070
-2027.223	776.881	1018.919	-2062.822	505.078	1018.327	-2209.213	642.507	528.819	-2247.539	524.806	556.344	-2400.056	639.678	155.786	-2432.632	558.419	133.475	-2527.693	613.845	45.070	-2205.706	621.686	63.859	-2259.520	668.745	1062.439
-2022.215	777.245	1017.586	-2057.649	505.061	1017.861	-2204.859	642.206	528.455	-2242.596	524.595	555.849	-2398.960	639.124	156.664	-2431.507	557.757	134.452	-2527.343	613.412	46.508	-2205.425	621.672	63.282	-2253.942	669.051	1061.811
-2016.294	777.160	1016.914	-2052.598	505.055	1017.498	-2200.199	642.320	527.971	-2237.743	524.334	555.308	-2397.769	638.583	157.651	-2430.469	557.368	135.272	-2526.830	612.855	48.006	-2205.270	621.634	62.992	-2248.240	669.367	1061.146
-2010.427	777.135	1015.881	-2046.944	505.434	1016.320	-2194.691	641.546	526.986	-2232.896	523.984	554.820	-2396.673	638.020	158.594	-2429.614	556.492	136.850	-2526.915	612.684	50.234	-2205.115	621.591	62.690	-2242.536	669.730	1060.530
-2004.474	777.203	1014.881	-2041.774	505.496	1015.874	-2190.100	641.400	526.569	-2228.031	523.555	554.248	-2395.367	637.508	159.690	-2428.333	555.946	137.835	-2526.306	612.034	51.891	-2204.949	621.713	62.231	-2236.657	670.134	1059.800
-1998.148	777.014	1013.988	-2036.586	505.541	1015.510	-2185.376	640.409	526.479	-2223.056	523.175	553.568	-2394.223	637.056	160.666	-2427.126	555.518	138.937	-2526.078	611.805	53.887	-2204.842	621.693	62.048	-2230.782	670.543	1059.073
-1992.427	777.624	1012.425	-2030.931	505.750	1014.537	-2179.208	639.368	525.216	-2218.026	522.730	553.038	-2392.632	636.452	161.763	-2425.761	554.967	140.171	-2525.745	611.397	55.903	-2205.023	621.639	62.326	-2224.873	671.026	1058.270
-1985.698	777.601	1012.091	-2025.453	505.925	1013.763	-2174.177	638.728	524.710	-2212.941	522.261	552.464	-2391.164	635.992	162.891	-2424.594	554.420	141.825	-2525.161	610.979	57.704	-2205.021	621.917	61.916	-2218.850	671.617	1057.426
-1979.221	777.551	1011.714	-2020.169	505.909	1013.432	-2166.512	634.731	524.247	-2207.726	521.792	551.892	-2389.604	635.545	164.072	-2423.211	553.948	143.365	-2525.001	610.791	60.077	-2204.881	622.058	61.453	-2212.868	672.213	1056.673
-1973.042	778.027	1010.935	-2014.112	506.344	1012.136	-2160.870	633.965	523.372	-2205.222	519.252	552.874	-2387.846	635.095	165.325	-2421.775	553.583	144.846	-2524.332	610.344	62.017	-2204.739	622.113	61.107	-2206.765	672.862	1055.953
-1966.794	778.435	1010.447	-2008.403	506.395	1011.544	-2155.621	633.619	522.535	-2199.525	518.988	552.133	-2386.076	634.712	166.622	-2420.237	553.167	146.694	-2524.028	610.264	64.623	-2204.586	622.212	60.704	-2200.612	673.475	1055.246
-1960.969	778.943	1009.671	-2003.039	506.195	1011.420	-2149.377	632.755	521.411	-2193.253	518.872	551.074	-2384.239	634.390	168.102	-2418.711	553.038	148.169	-2523.436	610.082	66.993	-2204.431	622.267	60.377	-2194.471	674.109	1054.657
-1954.511	779.144	1009.475	-1996.650	506.654	1010.214	-2143.897	632.486	520.568	-2182.710	520.879	549.765	-2382.151	634.132	169.620	-2417.215	552.545	150.482	-2522.783	609.876	69.480	-2204.291	622.307	59.981	-2188.223	674.784	1054.118
-1948.451	779.494	1008.772	-1990.645	506.875	1009.651	-2137.306	631.606	519.540	-2176.971	520.230	549.732	-2379.876	633.822	170.937	-2415.281	552.575	152.083	-2522.233	610.060	72.395	-2204.074	622.494	59.364	-2181.951	675.466	1053.561
-1941.659	779.251	1009.342	-1984.841	506.828	1009.520	-2131.382	631.240	519.045	-2171.108	519.665	549.657	-2377.527	633.565	172.479	-2413.388	552.528	154.145	-2521.159	609.806	74.916	-2203.910	622.567	58.911	-2175.691	676.161	1053.067
-1935.036	779.409	1009.489	-1979.041	506.780	1009.441	-2125.214	630.964	518.553	-2165.219	519.070	549.436	-2375.175	633.383	174.246	-2411.613	552.270	156.304	-2520.304	609.817	78.123	-2203.202	622.431	58.528	-2169.422	676.804	1052.732
-1929.341	780.083	1008.951	-1972.278	507.349	1008.417	-2118.338	630.209	517.927	-2159.078	518.274	549.365	-2372.571	633.136	176.009	-2409.439	552.227	158.698	-2519.486	609.885	81.495	-2203.474	622.807	57.948	-2163.133	677.366	1052.487
-1923.012	780.327	1009.275	-1966.391	507.488	1008.480	-2113.790	633.192	516.750	-2152.748	517.608	549.088	-2369.950	632.926	177.932	-2406.171	552.576	160.946	-2518.430	609.769	85.148	-2203.287	622.875	57.661	-2156.860	677.923	1052.218
-1916.638	780.689	1008.990	-1960.264	507.710	1008.425	-2106.989	632.897	515.854	-2146.043	516.665	549.019	-2366.666	632.591	179.613	-2403.767	552.247	163.645	-2517.159	609.577	88.941	-2202.978	622.963	57.268	-2150.459	678.543	1051.992
-1910.034	780.774	1009.454	-1953.683	508.188	1007.937	-2100.169	632.677	515.773	-2140.330	515.424	547.971	-2365.393	632.868	180.892	-2401.176	552.276	165.982	-2515.770	609.417	93.019	-2202.691	623.055	56.923	-2144.148	678.991	1051.798
-1902.585	780.550	1010.184	-1947.342	508.496	1007.926	-2091.644	631.591	514.566	-2133.247	514.308	547.759	-2361.991	632.492	182.775	-2398.271	552.285	168.304	-2514.118	609.151	97.307	-2202.396	623.144	56.641	-2137.810	679.482	1051.563
-1896.577	780.933	1010.182	-1941.284	508.713	1008.314	-2084.612	630.601	514.599	-2126.061	513.255	547.200	-2358.519	632.070	184.935	-2396.251	551.553	171.228	-2512.271	608.931	101.957	-2201.995	623.189	56.297	-2131.428	679.943	1051.369
-1890.172	781.347	1010.367	-1935.025	509.211	1008.421	-2077.511	630.099	514.488	-2118.609	512.050	547.077	-2354.698	631.650	187.136	-2392.009	551.734	173.959	-2510.129	608.633	106.822	-2201.633	623.252	55.970	-2125.081	680.411	1051.255
-1883.529	781.455	1010.769	-1928.815	509.632	1008.595	-2068.891	628.701	513.599	-2110.859	510.888	546.423	-2350.585	631.185	189.336	-2387.675	551.192	177.514	-2507.658	608.234	111.917	-2201.155	623.243	55.670	-2118.744	680.849	1051.209
-1876.894	781.659	1011.284	-1922.135	510.406	1008.341	-2061.532	628.011	513.718	-2102.773	509.526	546.127	-2346.181	630.592	191.592	-2383.663	550.837	180.531	-2505.360	608.102	117.797	-2200.553	623.335	55.165	-2112.389	681.278	1051.237
-1870.554	782.042	1011.460	-1915.807	510.996	1008.512	-2052.823	626.409	512.923	-2094.448	508.266	545.210	-2341.559	629.939	193.995	-2379.619	550.576	183.489	-2502.358	607.666	123.733	-2199.876	623.346	54.578	-2106.107	681.755	1051.255
-1864.026	782.055	1011.825	-1909.563	511.590	1008.856	-2044.326	625.020	512.107	-2085.614	506.876	544.670	-2336.887	629.255	196.569	-2376.450	548.233	187.096	-2499.301	607.468	130.315	-2199.188	623.355	54.169	-2099.909	682.201	1051.375
-1857.004	781.976	1012.689	-1903.327	512.190	1009.199	-2035.563	623.266	511.098	-2076.587	505.217	544.107	-2331.910	628.509	199.201	-2370.842	548.326	190.301	-2495.464	607.073	137.022	-2198.507	623.319	53.759	-2093.647	682.800	1051.515
-1850.888	782.586	1013.436	-1896.702	512.994	1009.075	-2024.692	619.726	509.284	-2067.403	503.761	543.199	-2326.570	627.728	202.050	-2365.989	547.645	193.812	-2496.427	607.771	144.119	-2197.779	623.402	53.123	-2087.535	683.340	1051.849
-1845.249	782.891	1013.208	-1890.428	513.692	1009.395	-2015.854	618.072	508.452	-2058.188	502.120	542.576	-2320.923	626.879	204.809	-2360.790	546.754	197.565	-2492.224	607.960	151.863	-2196.959	623.374	52.658	-2081.403	683.992	1052.013
-1838.716	783.241	1013.488	-1884.300	514.510	1009.876	-2005.244	615.508	507.032	-2048.742	500.437	542.078	-2314.921	626.058	207.721	-2355.344	546.131	201.077	-2487.516	608.081	159.416	-2195.983	623.264	52.258	-2075.430	684.581	1052.363
-1832.679	783.537	1014.108	-1877.767	515.514	1009.642	-1995.295	613.799	505.719	-2039.133	498.681	541.463	-2309.040	625.416	210.812	-2350.433	545.756	203.972	-2482.557	607.809	167.455	-2194.877	623.186	51.748	-2069.445	685.305	1052.774
-1826.984	784.119	1014.378	-1872.482	516.124	1010.463	-1984.531	611.904	503.807	-2029.157	497.202	540.711	-2302.815	624.726	214.081	-2343.182	545.538	207.707	-2477.035	607.240	175.774	-2193.785	623.161	51.224	-2063.558	685.998	1053.137
-1820.895	784.449	1015.103	-1866.255	517.145	1010.788	-1973.102	609.723	501.962	-2019.192	495.823	540.063	-2296.219	623.981	217.477	-2336.886	544.780	212.148	-2471.134	606.236	184.613	-2192.545	623.092	50.620	-2057.778	686.639	1053.530
-1814.810	784.790	1015.615	-1860.138	517.970	1011.228	-1961.392	607.530	499.912	-2009.730	493.579	539.997	-2289.325	623.181	220.829	-2329.989	544.183	216.059	-2464.700	605.213	193.445	-2191.122	622.747	50.042	-2051.985	687.350	1053.921
-1808.793	785.090	1016.259	-1853.440	519.216	1010.943	-1949.546	605.421	497.997	-1999.379	492.087	539.438	-2282.177	622.480	224.282	-2325.058	541.751	221.628	-2458.592	603.884	203.388	-2189.140	622.702	48.955	-2046.368	687.856	1054.549
-1802.884	785.505	1016.977	-1847.695	520.072	1011.682	-1937.347	603.323	496.287	-1990.040	490.093	538.851	-2274.733	621.757	227.983	-2317.476	541.203	225.805	-2451.028	603.248	212.561	-2186.914	622.601	48.218	-2040.683	688.394	1054.878
-1797.106	786.016	1017.625	-1841.672	521.031	1012.100	-1924.936	601.396	494.807	-1978.178	489.466	538.393	-2266.630	621.141	231.748	-2308.418	541.174	230.084	-2442.871	602.641	222.028	-2184.839	621.413	47.630	-2035.145	688.853	1055.377
-1791.357	786.535	1018.327	-1835.572	522.108	1012.291	-1912.542	599.706	493.589	-1967.785	488.085	538.726	-2258.539	620.766	235.341	-2301.362	540.125	234.857	-2434.028	601.623	231.360	-2182.208	620.407	46.624	-2029.597	689.260	1055.808
-1785.608	787.100	1019.161	-1829.918	522.905	1012.857	-1900.213	598.246	492.638	-1956.581	486.969	538.239	-2249.740	620.307	238.860	-2293.267	539.811	238.900	-2424.998	600.777	240.867	-2179.574	619.330	45.629	-2024.047	689.615	1056.325
-1780.160	787.818	1019.953	-1824.206	523.694	1013.512	-1888.066	597.078	491.944	-1941.835	485.079	541.137	-2239.966	619.665	242.641	-2285.088	539.075	243.866	-2414.999	599.656	250.434	-2176.290	617.952	44.217	-2018.622	689.996	1056.812
-1774.424	788.484	1020.788	-1818.045	524.665	1013.526	-1876.308	595.300	491.892	-1930.715	484.135	540.885	-2229.982	619.021	246.778	-2275.972	539.190	248.083	-2404.562	598.551	259.836	-2174.230	616.386	42.190	-2013.216	690.348	1057.226
-1769.971	790.024	1020.186	-1812.369	525.345	1013.976	-1863.551	594.149	491.679	-1919.292	482.961	541.057	-2221.147	618.153	249.760	-2265.798	539.598	252.100	-2393.693	597.544	269.557	-2171.232	614.800	40.248	-2007.856	690.544	1057.774
-1764.632	790.858	1020.994	-1806.880	525.945	1014.599	-1852.071	593.272	492.178	-1907.733	482.308	539.787	-2211.332	617.826	253.232	-2256.445	539.388	256.322	-2381.610	596.937	278.415	-2168.379	613.271	38.374	-2002.479	690.766	1058.233
-1759.132	791.566	1021.760	-1801.145	526.645	1015.010	-1839.938	592.441	493.014	-1896.456	481.193	540.004	-2201.344	617.626	256.566	-2247.027	539.144	260.747	-2368.967	596.655	286.946	-2165.340	612.138	35.879	-1997.093	690.970	1058.873
-1753.872	792.335	1022.560	-1795.930	526.970	1016.086	-1828.384	591.939	493.598	-1885.195	480.366	540.311	-2191.090	617.360	259.550	-2236.946	539.153	264.503	-2355.836	596.672	295.079	-2161.932	610.776	34.314	-1991.798	691.210	1059.419
-1748.597	793.045	1023.256	-1790.468	527.273	1016.539	-1816.493	591.156	494.743	-1873.975	479.411	540.474	-2180.951	617.280	262.440	-2226.929	538.974	268.242	-2342.283	597.458	302.637	-2157.385	609.273	33.897	-1986.592	691.331	1060.120
-1743.386	793.760	1024.097	-1784.990	527.654	1017.561	-1804.814	590.714	495.876	-1862.605	478.487	540.891	-2170.615	617.104	265.241	-2216.622	538.905	271.882	-2328.642	598.861	309.249	-2151.869	606.804	35.808	-1981.363	691.449	1060.764
-1738.180	794.421	1024.900	-1780.080	527.612	1018.552	-1793.373	590.210	497.206	-1851.107	477.530	541.324	-2159.554	616.802	267.583	-2206.206	539.027	275.731	-2315.867	600.846	314.825	-2144.843	604.179	37.750	-1976.161	691.640	1061.576
-1733.651	795.373	1025.380	-1774.963	527.667	1019.401	-1781.819	589.738	498.439	-1839.942	476.823	542.087	-2148.583	616.776	270.178	-2195.607	539.418	279.476	-2304.066	603.162	319.270	-2136.345	601.228	39.955	-1971.017	691.777	1062.448
-1729.271	796.573	1025.463	-1769.813	527.690	1020.299	-1770.332	589.320	500.144	-1829.937	476.566	544.098	-2137.783	616.884	273.182	-2184.880	539.890	283.238	-2291.811	606.062	322.424	-2126.459	598.049	42.261	-1965.843	691.925	1063.228
-1723.990	797.217	1025.946	-1764.702	527.707	1021.189	-1759.160	589.180	501.612	-1818.786	475.748	545.448	-2126.974	617.021	276.414	-2174.092	540.547	286.978	-2281.045	608.305	324.822	-2115.358	594.600	45.699	-1960.726	691.999	1064.146
-1719.105	797.783	1026.782	-1759.563	527.756	1021.914	-1747.417	588.598	503.560	-1809.846	476.315	546.433	-2115.929	617.226	279.344	-2163.357	541.212	290.557	-2270.483	610.365	326.613	-2102.968	591.408	48.743	-1955.550	692.211	1064.995
-1713.679	797.872	1028.113	-1754.421	527.626	1022.799	-1736.510	588.463	505.361	-1798.551	475.637	547.455	-2104.549	617.472	282.017	-2152.445	541.951	293.806	-2260.034	612.024	327.713	-2089.891	588.532	51.593	-1950.437	692.268	1065.927
-1708.700	798.374	1029.113	-1749.446	527.382	1024.004	-1725.056	588.123	507.263	-1786.051	472.836	547.410	-2093.080	617.736	284.449	-2141.264	542.505	296.720	-2249.396	613.441	328.418	-2076.215	585.728	54.308	-1945.286	692.413	1066.764
-1703.850	798.859	1029.863	-1744.269	527.275	1024.837	-1713.689	587.935	509.396	-1774.816	472.355	549.393	-2080.294	617.380	286.166	-2129.633	542.983	298.922	-2238.371	614.597	328.698	-2062.590	583.129	56.859	-1940.083	692.621	1067.633
-1698.787	799.285	1030.674	-1739.217	527.197	1025.686	-1702.780	587.857	511.590	-1762.302	471.816	550.152	-2068.363	617.521	288.089	-2117.917	543.306	301.009	-2227.219	615.332	329.002	-2048.683	580.699	59.214	-1935.068	692.721	1068.705
-1693.987	799.725	1031.509	-1734.185	527.239	1026.599	-1691.313	587.669	513.875	-1749.895	471.147	552.308	-2056.474	617.927	289.618	-2105.349	543.749	302.385	-2215.767	615.856	329.187	-2034.734	578.852	61.085	-1929.940	692.921	1069.550
-1689.218	800.059	1032.333	-1728.948	527.262	1027.605	-1680.140	587.564	516.316	-1738.525	470.578	554.396	-2044.694	618.681	290.550	-2093.205	543.878	303.818	-2203.869	616.152	328.870	-2020.634	577.217	62.727	-1924.841	693.077	1070.461
-1684.219	800.438	1033.166	-1723.742	527.267	1028.600	-1669.176	587.608	518.852	-1727.513	470.414	556.520	-2032.231	618.763	291.624	-2080.828	544.006	304.954	-2192.035	616.091	328.606	-2006.381	575.804	64.012	-1919.783	693.256	1071.422
-1679.353	800.744	1033.691	-1718.602	527.278	1029.615	-1657.793	587.511	521.410	-1716.241	469.812	559.220	-2020.213	619.069	292.653	-2068.140	544.083	305.603	-2179.910	615.901	327.964	-1991.877	574.228	65.657	-1914.709	693.335	1072.373
-1674.378	801.113	1034.310	-1713.334	527.289	1030.830	-1646.626	587.509	524.200	-1704.554	469.870	561.565	-2007.348	619.227	292.763	-2055.387	544.107	305.899	-2167.693	615.563	327.112	-1977.181	573.376	66.308	-1909.635	693.434	1073.294
-1669.463	801.402	1035.106	-1708.312	527.404	1032.001	-1635.922	587.638	526.935	-1691.529	469.010	565.238	-1994.733	619.119	293.499	-2042.689	543.944	306.012	-2155.477	615.190	325.809	-1961.805	572.173	67.420	-1904.463	693.651	1074.039
-1664.658	801.697	1035.834	-1703.472	527.562	1033.001	-1625.036	587.869	529.839	-1681.039	469.182	567.269	-1981.977	619.311	293.224	-2029.713	543.870	305.549	-2143.189	614.720	324.242	-1946.461	571.415	68.001	-1899.503	693.670	1075.027
-1659.724	802.105	1036.575	-1698.725	527.855	1034.054	-1614.251	588.142	532.542	-1670.883	469.653	569.046	-1969.122	619.181	293.299	-2016.764	543.759	305.016	-2130.815	613.760	322.183	-1930.721	570.590	68.894	-1894.394	693.785	1075.883
-1655.035	802.392	1037.289	-1694.066	528.143	1035.066	-1603.501	588.266	535.559	-1662.021	470.043	570.814	-1956.205	619.111	293.031	-2003.882	543.520	304.346	-2118.721	613.171	320.081	-1914.634	570.292	69.150	-1889.339	693.839	1076.749
-1650.284	802.708	1037.827	-1686.059	527.873	1036.402	-1592.845	588.695	538.486	-1651.412	470.179	573.162	-1943.228	618.891	292.715	-1990.931	543.286	303.477	-2106.299	612.858	317.305	-1898.288	569.863	69.747	-1884.273	693.941	1077.482
-1645.579	803.004	1038.081	-1680.774	528.123	1037.579	-1582.367	589.020	541.376	-1641.137	470.474	575.417	-1929.990	618.650	292.081	-1977.693	543.067	302.020	-2093.838	612.674	313.855	-1881.479	569.317	70.222	-1879.207	693.960	1078.240
-1640.863	803.359	1038.302	-1675.414	528.459	1038.637	-1572.174	589.430	544.311	-1631.120	470.797	577.589	-1917.228	618.692	291.271	-1964.775	542.697	300.738	-2081.174	612.343	310.450	-1864.427	568.993	70.355	-1874.186	693.873	1079.030
-1636.017	803.496	1038.847	-1670.121	528.752	1039.717	-1561.744	589.877	547.324	-1621.507	471.177	579.783	-1903.833	618.289	290.389	-1951.414	542.391	298.872	-2068.351	611.977	306.263	-1847.227	568.833	70.170	-1869.028	693.850	1079.701
-1631.526	803.924	1038.865	-1664.595	529.038	1040.965	-1551.884	590.394	550.331	-1610.424	471.221	582.011	-1890.560	618.092	289.042	-1938.142	541.957	297.037	-2055.828	611.155	302.351	-1829.854	568.623	70.433	-1864.014	693.695	1080.422
-1626.133	803.713	1039.863	-1659.333	529.337	1042.164	-1541.885	590.842	553.524	-1598.611	470.582	584.453	-1877.352	617.787	287.848	-1924.839	541.589	294.726	-2042.469	610.630	297.508	-1812.246	568.393	70.436	-1859.057	693.530	1081.016
-1620.816	803.511	1040.753	-1652.710	529.713	1043.172	-1532.142	591.505	556.444	-1588.225	470.591	586.997	-1863.701	617.504	285.961	-1911.199	541.226	292.166	-2029.290	610.047	292.680	-1794.446	568.141	70.148	-1854.057	693.302	1081.637
-1616.523	804.069	1040.631	-1647.373	530.166	1044.207	-1522.678	592.234	559.243	-1578.728	471.223	589.353	-1850.192	617.302	284.057	-1897.749	540.777	289.643	-2015.939	609.391	287.547	-1776.460	567.979	69.691	-1848.904	693.150	1082.002
-1611.865	804.248	1040.990	-1641.843	530.575	1045.192	-1513.327	592.907	562.071	-1569.543	472.213	591.620	-1836.570	617.133	281.957	-1883.590	540.890	286.215	-2002.479	608.707	282.161	-1758.472	567.901	69.202	-1843.965	692.808	1082.569
-1607.439	804.739	1040.980	-1636.220	531.057	1046.184	-1504.049	593.606	564.858	-1560.487	472.784	593.514	-1822.008	616.451	279.584	-1869.826	540.483	283.174	-1988.739	608.084	276.434	-1740.296	567.747	68.658	-1838.909	692.584	1082.900
-1602.658	804.846	1041.277	-1630.691	531.499	1047.056	-1494.921	594.388	567.570	-1550.958	473.269	595.446	-1808.418	616.222	277.025	-1855.791	540.181	279.678	-1974.853	607.453	270.322	-1721.842	567.562	68.123	-1833.880	692.227	1083.315
-1597.821	805.050	1041.617	-1625.067	531.925	1047.983	-1485.989	595.198	570.310	-1541.642	473.977	597.519	-1794.132	615.965	274.237	-1841.476	540.123	275.915	-1959.775	607.313	263.294	-1703.317	567.236	67.414	-1828.817	691.891	1083.619
-1593.164	805.328	1041.666	-1619.431	532.321	1048.931	-1477.180	595.977	572.937	-1532.562	474.631	599.840	-1780.269	615.810	271.369	-1827.397	539.739	272.198	-1945.551	606.691	256.749	-1684.590	566.855	66.775	-1823.741	691.499	1083.860
