NO_OF_FRAMES	1200
NO_OF_CAMERAS	12
NO_OF_MARKERS	8
FREQUENCY	240
NO_OF_ANALOG	0
ANALOG_FREQUENCY	0
DESCRIPTION	--
TIME_STAMP	2020-02-08, 11:26:38	226676.59644540
DATA_INCLUDED	3D
MARKER_NAMES	ASISL	ASISR	medialKnee	lateralKnee	medialMalleolus	lateralMalleolus	toe	sacral
ASISL X	ASISL Y	ASISL Z	ASISR X	ASISR Y	ASISR Z	medialKnee X	medialKnee Y	medialKnee Z	lateralKnee X	lateralKnee Y	lateralKnee Z	medialMalleolus X	medialMalleolus Y	medialMalleolus Z	lateralMalleolus X	lateralMalleolus Y	lateralMalleolus Z	toe X	toe Y	toe Z	sacral X	sacral Y	sacral Z	
-2434.461	791.950	979.025	-2464.597	545.316	967.259	-2670.226	657.120	479.929	-2700.268	564.437	498.962	-2964.957	651.516	152.533	-2944.177	611.943	172.038	-2779.010	585.517	39.925	-2629.883	684.535	976.128
-2428.745	792.380	979.509	-2459.020	546.088	967.364	-2664.210	656.725	479.784	-2694.476	563.930	499.141	-2961.816	651.252	155.849	-2941.114	611.399	173.977	-2778.788	585.401	39.794	-2624.437	685.338	976.499
-2423.886	793.244	980.611	-2454.090	546.640	968.189	-2658.265	656.330	479.434	-2688.606	563.538	499.215	-2958.563	650.945	159.058	-2937.825	610.686	175.925	-2778.335	585.201	39.655	-2619.107	686.093	976.763
-2420.941	790.547	982.426	-2449.387	546.756	969.032	-2647.219	655.372	479.619	-2681.820	563.084	499.566	-2954.872	650.169	162.215	-2924.757	608.094	177.377	-2778.183	585.136	39.569	-2613.838	686.799	977.126
-2415.284	791.131	982.804	-2442.997	548.316	968.884	-2640.773	654.915	478.972	-2675.525	562.567	499.656	-2951.330	649.808	165.734	-2921.542	607.617	179.749	-2777.883	584.972	39.449	-2608.537	687.567	977.407
-2408.052	795.385	981.937	-2438.049	549.046	969.395	-2634.202	654.413	478.481	-2669.031	561.930	499.699	-2947.260	649.358	168.826	-2918.312	607.189	182.224	-2777.674	584.878	39.256	-2603.241	688.251	977.741
-2405.233	792.498	984.752	-2432.596	549.946	969.938	-2627.580	653.991	477.913	-2660.962	561.399	499.830	-2943.292	649.059	172.376	-2914.433	606.490	184.147	-2777.510	584.760	38.919	-2598.063	688.902	978.139
-2399.805	793.207	985.178	-2427.138	550.831	970.257	-2620.561	653.395	476.993	-2655.183	560.776	499.355	-2939.129	648.912	175.953	-2910.202	605.701	186.134	-2776.952	584.581	38.624	-2592.890	689.491	978.446
-2394.908	794.418	985.801	-2421.809	551.719	970.837	-2618.476	652.151	475.869	-2648.578	560.135	498.836	-2948.183	661.650	197.826	-2914.522	606.737	188.578	-2776.335	584.153	37.853	-2589.563	689.160	978.717
-2387.534	798.638	984.865	-2416.854	552.537	971.494	-2607.386	651.760	475.086	-2636.474	560.956	497.430	-2943.266	661.304	201.031	-2910.432	605.809	190.764	-2776.134	584.446	37.264	-2584.467	689.703	979.062
-2382.455	799.780	985.151	-2410.876	553.537	971.844	-2599.994	650.994	474.430	-2627.930	559.706	497.636	-2938.231	661.002	204.359	-2906.428	605.586	193.347	-2764.060	582.234	41.361	-2579.501	690.363	979.206
-2377.502	800.256	986.624	-2406.038	554.220	972.725	-2592.263	650.197	473.482	-2619.768	558.866	497.137	-2933.070	660.890	208.117	-2901.790	605.013	196.045	-2763.704	582.089	40.773	-2574.426	690.994	979.541
-2372.332	801.496	986.820	-2401.369	555.313	973.486	-2584.263	649.259	472.499	-2616.963	557.101	497.076	-2927.687	660.541	211.867	-2896.718	604.592	198.348	-2764.627	581.983	39.725	-2569.566	691.551	979.884
-2367.491	801.996	988.107	-2395.952	556.361	973.852	-2576.320	648.462	471.453	-2608.706	556.256	496.334	-2922.210	660.376	215.968	-2891.332	604.089	200.862	-2764.138	581.669	39.102	-2564.670	692.113	980.346
-2362.833	803.156	988.770	-2391.195	557.211	974.756	-2567.929	647.450	470.296	-2597.430	555.610	495.469	-2916.548	660.927	220.335	-2886.751	604.137	203.887	-2763.458	581.493	38.582	-2559.794	692.712	980.764
-2358.104	804.009	989.484	-2386.321	558.061	975.489	-2559.399	646.535	469.163	-2588.862	554.699	494.460	-2910.340	661.040	224.101	-2881.235	603.799	206.696	-2763.265	581.617	37.601	-2554.968	693.317	981.083
-2353.307	804.764	990.454	-2381.360	559.018	976.143	-2550.725	645.563	467.965	-2583.207	553.474	494.169	-2907.728	660.239	225.962	-2875.330	603.530	209.539	-2762.470	581.371	36.719	-2550.156	693.937	981.439
-2348.413	805.529	991.234	-2376.906	559.632	977.188	-2542.024	644.660	466.960	-2571.523	552.780	492.991	-2901.139	660.471	229.850	-2868.977	603.251	211.972	-2761.332	581.020	35.969	-2545.444	694.586	981.882
-2343.785	806.577	991.623	-2372.080	560.551	977.859	-2530.636	642.700	465.125	-2562.653	551.874	492.199	-2894.597	660.492	234.558	-2863.908	603.456	215.707	-2760.417	580.921	34.675	-2540.810	695.254	982.238
-2339.261	807.239	992.557	-2367.584	561.370	978.749	-2522.182	642.267	464.074	-2553.743	551.083	491.370	-2887.026	660.726	238.254	-2857.536	603.258	218.788	-2759.154	580.494	34.010	-2535.090	696.221	983.195
-2334.410	808.237	993.057	-2363.097	562.108	979.588	-2513.077	641.592	462.910	-2544.753	550.302	490.523	-2880.003	660.800	243.059	-2850.606	603.126	221.515	-2757.511	579.882	32.852	-2530.582	697.077	983.615
-2329.749	809.035	993.573	-2358.572	562.973	980.399	-2504.029	640.951	461.921	-2535.559	549.654	489.713	-2872.224	661.024	247.002	-2843.355	602.899	224.241	-2756.202	579.928	31.146	-2526.093	697.902	984.090
-2325.361	809.702	994.489	-2354.689	563.288	981.554	-2494.688	640.265	461.071	-2526.432	548.928	488.996	-2864.348	661.183	251.451	-2836.904	603.075	227.858	-2754.601	579.619	29.744	-2521.704	698.756	984.558
-2320.787	810.443	995.211	-2350.194	564.179	982.316	-2485.366	639.775	460.136	-2517.140	548.310	488.272	-2855.984	661.626	255.470	-2829.652	602.986	230.747	-2753.046	579.463	27.698	-2517.331	699.636	984.962
-2316.384	811.539	995.511	-2345.891	564.945	983.108	-2476.051	639.202	459.709	-2507.846	547.702	487.628	-2847.442	662.021	259.535	-2822.714	603.253	233.886	-2750.746	578.777	26.774	-2512.982	700.528	985.405
-2312.026	812.086	996.357	-2342.166	565.376	984.307	-2466.495	638.741	458.949	-2498.602	547.102	487.111	-2838.804	662.567	263.679	-2815.030	603.225	236.671	-2749.144	578.865	24.227	-2508.672	701.421	985.886
-2307.618	812.998	996.853	-2337.881	566.043	985.057	-2457.312	638.366	458.662	-2489.275	546.485	486.725	-2829.897	663.121	266.881	-2807.003	603.334	239.256	-2746.911	578.332	23.057	-2504.403	702.267	986.346
-2303.278	813.544	997.456	-2333.986	566.594	985.993	-2447.826	637.951	458.650	-2479.762	545.790	486.230	-2821.563	663.697	270.330	-2799.470	603.619	242.037	-2744.440	578.210	21.716	-2500.224	703.137	986.752
-2299.090	814.140	998.029	-2330.301	566.946	987.186	-2438.605	637.696	458.333	-2470.619	545.177	486.026	-2813.561	664.555	273.111	-2791.959	604.020	245.219	-2739.651	577.241	23.026	-2496.083	703.967	987.232
-2294.929	814.551	998.774	-2326.223	567.570	988.048	-2429.147	637.265	458.344	-2461.250	544.440	486.014	-2805.691	665.158	276.080	-2784.302	604.449	247.910	-2733.462	576.260	27.005	-2492.036	704.794	987.765
-2290.859	815.171	999.224	-2322.281	568.041	989.063	-2419.865	636.878	458.462	-2451.917	543.839	485.865	-2797.689	666.017	278.473	-2776.414	604.873	250.358	-2726.163	575.174	31.424	-2487.934	705.573	988.327
-2286.808	815.910	999.674	-2318.441	568.495	990.147	-2410.603	636.510	458.517	-2442.715	543.155	486.073	-2789.626	666.885	280.689	-2768.591	605.392	252.887	-2718.110	574.520	34.717	-2483.943	706.299	988.845
-2282.991	816.082	1000.624	-2314.515	569.035	991.089	-2401.228	636.004	458.796	-2433.547	542.515	486.261	-2781.653	667.907	282.811	-2760.560	605.933	255.390	-2709.754	573.748	37.282	-2479.929	706.978	989.342
-2279.030	817.042	1000.691	-2310.454	569.591	992.137	-2392.186	635.615	459.085	-2424.507	541.880	486.737	-2773.614	668.981	284.413	-2752.588	606.717	257.698	-2700.632	572.624	40.331	-2476.013	707.578	989.990
-2275.006	817.144	1001.688	-2306.459	570.180	993.117	-2382.818	635.088	459.397	-2415.591	541.306	487.225	-2765.705	669.887	286.093	-2744.510	607.431	259.964	-2691.525	572.366	41.813	-2471.996	708.164	990.627
-2271.484	818.068	1001.825	-2302.665	570.624	994.271	-2373.793	634.693	460.117	-2406.685	540.733	487.950	-2757.525	670.839	287.309	-2736.225	607.932	261.824	-2682.275	571.808	43.881	-2468.179	708.650	991.374
-2267.836	818.609	1002.426	-2298.238	571.713	995.090	-2364.692	634.340	460.534	-2397.936	540.181	488.681	-2749.246	671.824	288.289	-2721.875	607.574	264.252	-2672.311	571.089	46.254	-2464.328	709.054	992.020
-2264.117	819.190	1002.931	-2294.285	572.400	996.073	-2355.756	633.870	461.371	-2389.170	539.705	489.575	-2741.187	672.586	289.500	-2713.341	608.158	265.697	-2662.232	570.384	48.628	-2460.550	709.457	992.710
-2260.457	819.812	1003.573	-2290.410	572.873	997.324	-2346.926	633.664	462.188	-2380.405	539.291	490.290	-2732.618	673.312	290.039	-2704.752	608.654	266.782	-2651.677	569.334	50.634	-2456.734	709.719	993.440
-2256.957	820.655	1003.754	-2286.565	573.500	998.522	-2338.102	633.477	462.978	-2371.801	538.877	491.289	-2724.443	674.029	290.591	-2696.263	609.183	267.886	-2641.228	568.711	52.185	-2452.984	709.934	994.259
-2253.330	821.607	1004.036	-2282.441	574.244	999.545	-2329.197	633.257	463.790	-2363.223	538.471	492.103	-2716.153	674.753	290.843	-2686.978	609.360	267.880	-2630.409	567.900	53.574	-2449.228	710.145	995.036
-2249.827	822.241	1004.731	-2278.585	574.862	1000.711	-2320.566	633.020	464.777	-2354.767	538.186	493.039	-2707.123	675.117	290.356	-2678.639	609.801	268.838	-2619.421	567.057	54.849	-2445.475	710.250	995.792
-2246.296	822.907	1005.124	-2274.524	575.647	1001.826	-2312.021	632.978	465.774	-2346.298	537.902	494.015	-2703.326	677.260	291.196	-2674.000	610.669	268.268	-2608.074	566.233	56.093	-2441.772	710.384	996.534
-2242.785	823.466	1005.654	-2270.390	576.388	1002.812	-2303.677	632.981	466.781	-2338.123	537.703	495.065	-2689.911	675.804	289.640	-2665.127	610.898	268.466	-2596.911	565.687	56.581	-2438.110	710.432	997.339
-2241.257	822.428	1006.904	-2266.407	577.171	1003.978	-2295.130	632.844	467.845	-2329.799	537.628	496.010	-2681.059	676.016	288.771	-2655.933	611.056	268.095	-2585.231	564.792	57.567	-2434.458	710.594	998.028
-2237.893	823.216	1007.357	-2262.460	577.961	1005.126	-2286.709	632.859	468.853	-2321.614	537.436	496.914	-2676.849	677.921	288.970	-2646.484	611.127	267.231	-2573.423	564.121	58.343	-2430.875	710.673	998.909
-2234.340	823.831	1007.850	-2258.577	578.749	1006.032	-2278.317	632.801	469.955	-2313.528	537.387	497.895	-2667.915	677.889	287.775	-2637.215	611.275	266.779	-2561.523	563.421	58.605	-2427.278	710.756	999.669
-2228.890	826.505	1006.777	-2254.652	579.504	1007.080	-2270.254	632.855	471.175	-2305.602	537.402	498.883	-2658.770	677.860	286.222	-2627.804	611.204	265.879	-2549.300	562.708	59.113	-2423.753	710.828	1000.471
-2225.734	827.051	1007.411	-2251.293	579.639	1008.608	-2262.049	633.041	472.266	-2297.540	537.481	499.680	-2649.638	677.976	284.387	-2618.020	611.095	264.421	-2536.910	561.872	59.166	-2420.154	710.933	1001.146
-2222.443	827.852	1007.211	-2247.508	580.346	1009.574	-2253.922	633.201	473.329	-2289.738	537.529	500.818	-2640.351	677.687	282.506	-2608.408	610.915	263.400	-2524.772	561.488	58.609	-2416.616	711.008	1001.913
-2219.125	828.226	1007.563	-2243.882	581.001	1010.504	-2245.984	633.359	474.661	-2281.765	537.594	501.679	-2631.028	677.636	280.126	-2598.675	610.757	261.860	-2511.875	560.495	58.687	-2413.150	711.099	1002.624
-2215.634	828.933	1007.600	-2239.704	582.236	1011.104	-2238.054	633.686	476.012	-2273.927	537.763	502.432	-2621.857	677.131	278.209	-2588.840	610.505	260.130	-2499.049	559.806	57.930	-2409.618	711.179	1003.315
-2212.366	829.340	1007.830	-2235.995	582.845	1012.064	-2230.016	633.963	477.075	-2266.101	537.930	503.417	-2610.269	677.708	275.243	-2579.024	610.236	258.439	-2485.995	559.208	57.230	-2406.221	711.378	1003.972
-2209.221	829.693	1008.153	-2232.584	583.412	1013.085	-2222.016	634.195	478.319	-2258.384	538.138	504.282	-2600.756	677.171	272.494	-2568.894	609.866	256.240	-2472.475	558.117	57.331	-2402.872	711.506	1004.713
-2205.978	830.185	1008.056	-2229.112	583.960	1013.861	-2214.181	634.407	479.663	-2250.794	538.369	505.340	-2591.011	676.884	269.198	-2558.582	609.378	253.868	-2459.106	557.298	56.596	-2399.510	711.686	1005.306
-2202.798	830.654	1007.817	-2225.614	584.461	1014.616	-2206.323	634.708	480.972	-2243.196	538.612	506.305	-2581.366	676.160	266.130	-2548.425	608.948	251.521	-2445.368	556.536	55.649	-2396.173	711.852	1005.966
-2199.802	830.956	1007.840	-2222.066	584.960	1015.283	-2198.668	635.011	482.290	-2235.572	538.860	507.262	-2571.508	675.673	262.577	-2537.946	608.440	248.834	-2431.157	555.426	55.329	-2392.825	712.064	1006.457
-2198.340	829.285	1008.854	-2218.920	585.379	1016.099	-2190.938	635.432	483.557	-2227.931	539.211	508.044	-2561.691	675.151	258.953	-2527.481	607.927	246.033	-2416.848	554.427	54.902	-2389.543	712.169	1006.977
-2195.234	829.732	1008.605	-2215.389	585.791	1016.654	-2183.401	635.870	484.908	-2220.466	539.450	509.072	-2555.007	673.670	254.525	-2516.716	607.284	243.072	-2402.214	553.227	54.638	-2386.333	712.295	1007.482
-2190.396	832.071	1007.167	-2211.882	586.241	1017.195	-2175.832	636.234	486.230	-2212.878	539.764	510.002	-2544.674	673.302	250.169	-2506.180	606.807	240.170	-2387.618	552.381	54.005	-2383.074	712.441	1007.867
-2189.037	830.475	1007.950	-2208.707	586.644	1017.861	-2168.644	636.680	487.389	-2206.117	540.272	510.772	-2534.697	672.391	246.388	-2493.657	606.221	237.031	-2372.526	551.304	53.688	-2379.827	712.526	1008.236
-2185.770	831.314	1007.590	-2205.304	587.004	1018.300	-2161.695	637.177	488.392	-2198.070	540.532	511.927	-2524.281	671.650	242.181	-2484.227	605.604	233.773	-2357.321	550.154	53.518	-2376.655	712.632	1008.488
-2180.818	832.877	1006.984	-2201.958	587.433	1018.693	-2154.245	637.603	489.700	-2190.695	540.928	512.771	-2513.652	671.118	237.474	-2471.675	605.067	230.541	-2342.186	549.253	53.303	-2373.494	712.682	1008.701
-2177.697	833.143	1006.856	-2198.726	587.785	1018.882	-2146.783	637.939	490.846	-2183.334	541.329	513.627	-2499.677	672.660	232.965	-2460.283	604.204	227.118	-2326.906	548.258	52.898	-2370.403	712.702	1008.838
-2174.760	833.413	1006.669	-2195.407	588.128	1019.225	-2139.499	638.385	492.156	-2176.096	541.782	514.444	-2488.718	671.518	228.434	-2448.996	603.540	223.549	-2315.317	547.714	51.182	-2367.286	712.721	1008.925
-2171.757	833.965	1006.029	-2192.753	587.970	1019.958	-2132.259	638.890	493.409	-2168.724	542.186	515.156	-2477.730	670.425	223.962	-2437.420	602.840	219.925	-2299.765	546.584	50.878	-2364.104	712.729	1008.871
-2168.913	834.275	1005.711	-2188.853	589.028	1019.632	-2125.127	639.414	494.687	-2161.626	542.604	516.033	-2466.396	670.294	218.540	-2425.765	601.921	216.305	-2284.198	545.322	50.623	-2361.020	712.748	1008.711
-2167.564	833.375	1006.168	-2185.439	589.414	1019.791	-2117.931	639.891	495.916	-2154.452	543.050	516.867	-2454.610	673.732	211.151	-2413.899	601.090	212.544	-2268.681	544.077	50.564	-2357.897	712.698	1008.578
-2164.610	834.011	1005.389	-2182.241	589.793	1019.768	-2110.718	640.355	497.093	-2147.363	543.489	517.597	-2443.211	668.647	208.417	-2402.003	600.200	208.648	-2253.041	542.843	50.203	-2354.852	712.702	1008.340
-2161.618	834.363	1004.997	-2178.817	590.173	1019.757	-2103.589	640.973	498.149	-2140.830	544.084	518.188	-2430.488	664.361	204.170	-2389.861	599.217	204.834	-2237.428	541.643	50.269	-2351.787	712.701	1008.061
-2157.245	835.885	1003.870	-2175.519	590.545	1019.665	-2096.773	641.395	499.304	-2133.861	544.541	519.015	-2418.547	663.610	199.039	-2379.146	598.105	200.624	-2221.604	540.594	50.013	-2348.712	712.706	1007.660
-2154.370	836.314	1003.371	-2172.026	591.023	1019.404	-2089.787	641.909	500.450	-2126.773	545.075	519.531	-2401.927	661.425	195.977	-2366.796	597.156	196.798	-2205.960	539.607	49.739	-2345.667	712.730	1007.228
-2153.018	835.435	1003.870	-2169.156	590.736	1019.575	-2082.835	642.450	501.426	-2119.852	545.583	520.204	-2393.524	661.097	189.888	-2353.272	596.347	192.921	-2190.020	538.439	49.694	-2342.594	712.706	1006.670
-2150.193	835.825	1003.431	-2165.227	591.633	1018.990	-2076.197	642.971	502.570	-2113.005	546.021	520.939	-2381.073	659.826	184.829	-2340.647	595.353	189.050	-2174.133	537.351	49.767	-2339.493	712.707	1006.167
-2147.074	836.197	1002.931	-2161.954	591.785	1018.670	-2069.588	643.515	503.524	-2106.206	546.517	521.472	-2370.063	660.220	178.753	-2327.877	594.270	185.293	-2159.822	536.740	48.873	-2336.415	712.687	1005.567
-2144.066	836.451	1002.585	-2158.663	592.028	1018.432	-2063.587	644.085	504.338	-2099.519	547.047	522.252	-2357.264	659.185	173.670	-2315.098	593.282	181.562	-2143.772	535.791	49.109	-2333.276	712.657	1004.969
-2139.265	838.046	1001.187	-2155.445	592.182	1018.302	-2057.210	645.122	504.990	-2092.797	547.612	522.919	-2344.606	657.738	168.987	-2301.845	592.367	177.760	-2127.881	534.923	49.584	-2330.204	712.658	1004.414
-2136.201	838.283	1000.931	-2152.136	592.400	1017.875	-2050.437	645.051	506.548	-2086.166	548.164	523.396	-2332.269	656.136	164.376	-2288.847	591.039	174.494	-2111.819	533.960	49.983	-2327.075	712.620	1003.781
-2133.009	838.391	1000.640	-2148.623	592.599	1017.643	-2043.865	645.635	507.701	-2079.779	548.824	524.130	-2319.086	654.997	159.704	-2275.816	589.978	171.086	-2095.784	533.102	50.610	-2323.908	712.606	1003.250
-2129.890	838.638	1000.266	-2145.643	592.749	1017.301	-2037.474	646.230	508.765	-2073.296	549.458	524.705	-2305.858	653.679	155.064	-2262.326	588.856	167.340	-2079.711	532.314	51.543	-2320.791	712.582	1002.689
-2126.713	839.050	999.900	-2142.168	592.926	1016.848	-2031.274	646.757	509.606	-2066.888	549.971	525.245	-2292.611	652.452	150.691	-2248.989	587.783	164.006	-2063.685	531.602	52.341	-2317.552	712.500	1002.195
-2125.453	837.948	1000.593	-2138.778	593.057	1016.863	-2025.374	647.497	510.352	-2060.581	550.548	525.883	-2279.249	651.226	146.348	-2235.747	586.586	161.014	-2047.531	530.819	53.429	-2314.312	712.390	1001.739
-2122.356	838.178	1000.159	-2135.819	592.963	1016.320	-2019.251	648.034	511.255	-2054.273	551.202	526.475	-2265.722	649.884	142.119	-2222.245	585.639	157.571	-2031.560	530.135	54.746	-2311.008	712.342	1001.268
-2119.184	838.458	999.919	-2132.457	593.120	1016.088	-2013.559	648.631	511.991	-2047.913	551.899	526.933	-2252.064	648.728	137.931	-2208.521	584.736	154.313	-2015.518	529.663	55.948	-2307.682	712.232	1000.878
-2115.864	838.698	999.627	-2130.566	593.365	1015.877	-2007.596	649.472	512.579	-2041.403	552.319	527.407	-2238.515	647.369	134.090	-2194.921	583.670	151.547	-1999.582	528.996	57.469	-2304.334	712.212	1000.449
-2112.858	838.879	999.499	-2127.488	593.495	1015.739	-2001.759	650.016	513.652	-2035.671	553.307	528.076	-2224.666	646.209	130.152	-2181.382	582.659	148.797	-1983.698	528.563	59.107	-2300.965	712.264	1000.098
-2109.605	839.077	999.113	-2124.395	594.641	1014.912	-1995.949	650.586	514.511	-2029.134	553.703	528.521	-2210.686	645.015	126.490	-2167.522	581.724	146.092	-1967.849	528.222	60.696	-2297.578	712.279	999.740
-2106.428	839.308	999.010	-2121.036	594.899	1014.475	-1990.207	651.382	515.409	-2023.214	554.373	529.068	-2196.827	643.802	122.989	-2154.024	580.574	144.020	-1952.075	527.955	62.630	-2294.114	712.335	999.439
-2103.025	839.463	998.476	-2117.738	595.092	1014.322	-1984.483	651.879	516.185	-2017.367	554.807	529.703	-2183.315	642.512	119.800	-2140.685	579.914	141.204	-1936.416	527.575	64.553	-2290.659	712.373	999.159
-2101.087	839.905	998.392	-2114.221	595.507	1013.975	-1978.935	652.483	516.889	-2011.398	555.458	529.994	-2168.977	641.417	116.718	-2126.164	579.096	138.970	-1920.811	527.482	66.557	-2287.167	712.340	998.875
-2097.624	840.031	998.044	-2110.599	596.109	1013.554	-1973.602	653.254	517.632	-2005.583	556.085	530.436	-2154.940	640.141	113.439	-2112.901	578.012	136.979	-1905.194	527.368	68.690	-2283.682	712.405	998.626
-2094.256	840.253	997.725	-2107.765	594.594	1014.101	-1968.269	653.767	518.122	-1999.846	556.681	530.881	-2140.790	639.060	110.568	-2098.870	577.166	135.015	-1889.781	527.364	71.010	-2280.078	712.442	998.276
-2090.797	840.486	997.129	-2104.160	595.070	1013.743	-1962.882	654.325	518.745	-1994.013	557.250	531.120	-2126.996	637.954	108.466	-2084.301	576.416	133.280	-1874.424	527.318	73.442	-2276.470	712.524	998.026
-2087.643	840.645	997.057	-2100.376	595.725	1013.147	-1957.925	655.160	519.201	-1988.247	557.806	531.513	-2113.205	636.868	105.480	-2071.038	575.399	131.679	-1859.250	527.630	75.767	-2272.892	712.609	997.696
-2084.293	840.876	996.646	-2096.412	597.334	1012.577	-1952.778	655.643	519.818	-1982.679	558.395	531.868	-2098.945	636.089	103.070	-2056.609	574.747	130.334	-1844.044	527.866	78.515	-2269.260	712.666	997.391
-2080.795	841.180	995.975	-2092.826	597.504	1012.311	-1947.558	656.284	520.517	-1977.013	559.014	532.053	-2085.454	634.855	101.117	-2043.318	573.806	128.976	-1828.972	528.192	81.408	-2265.666	712.693	997.124
-2077.326	841.265	995.656	-2089.021	597.988	1012.075	-1942.461	656.801	521.002	-1971.364	559.584	532.365	-2071.300	633.819	98.993	-2029.770	572.921	128.124	-1814.061	528.576	84.397	-2262.013	712.707	996.804
-2073.918	841.557	995.018	-2085.257	598.154	1011.774	-1937.133	657.355	521.682	-1965.859	560.103	532.545	-2057.487	632.829	97.280	-2016.318	572.082	127.074	-1799.220	529.104	87.656	-2258.288	712.667	996.406
-2070.263	841.819	994.558	-2081.397	598.482	1011.434	-1932.505	657.919	522.061	-1960.324	560.607	532.802	-2043.839	631.687	95.839	-2002.832	571.489	126.149	-1784.596	529.826	90.777	-2254.506	712.632	995.972
-2066.917	842.106	994.344	-2077.473	598.789	1011.192	-1927.788	658.375	522.376	-1954.984	561.170	533.008	-2030.423	630.794	94.725	-1989.077	570.850	125.371	-1769.974	530.421	94.514	-2250.720	712.633	995.518
-2063.352	842.337	993.642	-2073.497	599.016	1010.660	-1922.905	658.885	522.572	-1949.388	561.648	533.000	-2014.364	631.397	91.526	-1975.505	570.174	124.982	-1755.612	531.238	98.202	-2246.895	712.546	995.090
-2060.008	842.507	993.319	-2069.981	597.707	1011.009	-1918.256	659.312	522.961	-1944.170	562.165	533.106	-2001.606	629.820	90.625	-1962.232	569.514	124.643	-1741.436	532.205	102.220	-2243.072	712.441	994.553
-2056.332	842.638	992.794	-2066.094	597.686	1010.887	-1913.323	659.678	523.508	-1938.887	562.509	533.212	-1988.088	628.913	89.940	-1948.115	569.031	124.387	-1727.314	533.192	106.260	-2239.267	712.323	994.166
-2052.597	843.010	992.062	-2061.754	598.565	1009.745	-1908.439	660.009	523.548	-1933.617	563.060	533.167	-1974.543	627.954	88.615	-1935.531	568.387	124.330	-1713.373	534.226	110.674	-2235.417	712.208	993.579
-2049.081	843.294	991.653	-2057.322	600.181	1009.100	-1903.907	660.357	523.795	-1928.528	563.366	533.306	-1961.109	626.995	87.929	-1922.373	567.867	124.509	-1699.732	535.446	115.031	-2231.526	712.072	993.026
-2045.556	843.430	991.156	-2053.225	600.258	1008.764	-1899.238	660.610	523.958	-1923.238	563.744	533.100	-1947.834	626.046	87.152	-1909.205	567.335	124.547	-1685.807	536.917	119.847	-2227.568	711.888	992.393
-2042.059	843.579	990.779	-2050.059	598.989	1008.653	-1894.532	660.975	523.792	-1918.333	564.056	533.140	-1934.734	624.907	86.771	-1896.130	566.796	124.802	-1672.576	538.167	124.501	-2223.629	711.701	991.741
-2038.132	843.835	989.937	-2044.937	600.884	1007.903	-1889.961	661.248	523.991	-1913.199	564.480	532.993	-1921.643	624.058	86.661	-1882.713	566.388	125.270	-1659.434	539.608	129.105	-2219.559	711.516	991.009
-2034.367	844.027	989.538	-2040.759	601.096	1007.286	-1885.324	661.563	524.144	-1908.202	564.870	532.846	-1908.701	623.082	86.392	-1869.974	565.957	125.753	-1646.549	541.143	133.802	-2215.567	711.324	990.328
-2030.650	844.238	989.101	-2036.463	601.445	1006.726	-1880.735	661.762	523.859	-1903.201	565.214	532.607	-1895.560	622.364	86.013	-1857.632	564.952	126.662	-1633.736	542.803	138.268	-2211.552	711.123	989.587
-2026.962	844.412	988.555	-2032.857	599.843	1006.922	-1876.262	662.093	523.756	-1898.259	565.524	532.431	-1883.037	621.377	86.324	-1845.099	564.569	127.425	-1621.256	544.462	143.099	-2207.491	710.920	988.804
-2023.256	844.527	988.118	-2028.995	599.632	1006.061	-1871.796	662.438	523.521	-1893.449	565.842	532.357	-1870.546	620.536	86.439	-1832.829	564.143	128.507	-1608.965	546.162	147.985	-2203.382	710.744	988.030
-2019.205	844.700	987.107	-2023.930	601.779	1005.291	-1866.810	662.632	523.594	-1888.562	566.224	531.975	-1858.298	619.602	86.856	-1820.282	563.892	128.941	-1596.867	547.980	152.616	-2199.325	710.538	987.271
-2015.365	844.881	986.854	-2019.718	601.956	1004.779	-1862.148	662.908	523.446	-1883.668	566.477	531.753	-1845.848	618.884	86.978	-1808.350	563.542	129.997	-1585.059	549.840	157.384	-2195.204	710.280	986.436
-2011.523	845.122	986.189	-2015.302	602.186	1004.053	-1857.597	663.202	523.133	-1878.600	566.909	531.269	-1832.484	619.079	86.639	-1796.371	563.243	131.115	-1573.421	551.701	162.009	-2190.977	710.095	985.572
-2007.576	845.225	985.664	-2011.634	600.375	1004.369	-1853.055	663.607	522.939	-1873.715	567.181	531.140	-1820.836	617.923	87.707	-1784.680	563.009	132.202	-1562.144	553.436	166.914	-2186.729	709.882	984.641
-2003.544	845.496	984.749	-2007.382	600.592	1003.591	-1848.361	663.900	522.631	-1868.623	567.456	530.663	-1809.261	616.861	88.481	-1773.164	562.757	133.490	-1550.979	555.453	171.216	-2182.467	709.690	983.757
-1999.334	845.530	984.157	-2002.265	602.702	1002.263	-1843.772	664.139	522.327	-1863.578	567.802	530.397	-1797.788	616.114	89.189	-1761.822	562.617	134.645	-1540.427	556.939	175.872	-2178.185	709.505	982.805
-1995.556	845.796	983.512	-1998.857	600.411	1002.344	-1839.269	664.362	521.912	-1858.451	568.109	530.009	-1786.635	615.550	90.083	-1750.669	562.503	135.771	-1529.916	558.583	180.330	-2173.904	709.345	981.830
-1991.561	845.777	982.918	-1993.531	602.630	1001.112	-1834.342	664.544	521.819	-1853.469	568.420	529.791	-1775.293	615.116	90.724	-1739.817	562.415	137.071	-1519.604	560.076	184.916	-2169.634	709.197	980.844
-1987.225	845.984	981.931	-1988.986	603.003	1000.330	-1829.501	664.557	521.655	-1848.350	568.691	529.322	-1764.173	614.827	91.289	-1729.187	562.394	138.346	-1509.522	561.432	189.037	-2165.283	709.046	979.876
-1983.023	845.998	981.321	-1984.676	602.953	999.725	-1824.814	664.676	521.183	-1843.324	568.939	529.077	-1753.439	614.549	92.229	-1718.648	562.405	139.567	-1499.678	562.738	193.171	-2160.900	708.919	978.826
-1979.129	846.191	980.762	-1980.836	601.146	999.769	-1819.997	664.745	520.965	-1838.171	569.098	528.598	-1742.863	614.380	93.030	-1708.340	562.453	140.750	-1490.349	563.770	197.525	-2156.510	708.718	977.797
-1974.722	846.080	979.867	-1976.156	601.611	998.542	-1815.141	664.915	520.658	-1833.306	569.173	528.392	-1732.417	614.360	93.759	-1698.345	562.546	141.812	-1481.103	564.687	201.163	-2152.095	708.509	976.817
-1970.143	846.133	978.724	-1971.052	603.071	997.491	-1810.136	664.761	520.660	-1828.111	569.335	527.893	-1722.435	614.327	94.696	-1688.639	562.640	143.001	-1471.953	565.534	204.712	-2147.602	708.322	975.691
-1966.218	846.117	978.382	-1966.718	602.940	996.805	-1804.906	664.737	520.351	-1823.088	569.452	527.604	-1712.434	614.511	95.483	-1679.141	562.784	144.148	-1463.059	566.222	207.993	-2143.154	708.079	974.677
-1961.754	846.215	977.295	-1962.900	601.061	996.791	-1799.859	664.796	520.211	-1817.922	569.489	527.078	-1702.980	614.784	96.199	-1669.971	563.056	145.070	-1454.564	566.710	211.212	-2138.685	707.927	973.593
-1957.392	846.142	976.482	-1958.243	601.090	995.882	-1794.624	664.883	519.968	-1812.748	569.643	526.650	-1693.590	615.198	96.901	-1661.071	563.550	145.880	-1446.318	567.162	214.218	-2134.192	707.758	972.556
-1953.070	846.205	975.671	-1952.970	602.821	994.435	-1789.442	664.836	519.751	-1807.565	569.593	526.375	-1684.494	615.735	97.512	-1652.637	563.890	146.876	-1438.308	567.401	217.088	-2129.720	707.546	971.530
-1948.579	846.162	974.665	-1948.348	602.702	993.540	-1783.789	664.834	519.549	-1802.294	569.745	526.010	-1675.673	616.317	98.161	-1644.163	564.333	147.401	-1430.679	567.473	219.739	-2125.119	707.366	970.502
-1944.130	845.998	973.663	-1944.473	600.498	993.661	-1778.267	664.827	519.683	-1796.995	569.827	525.668	-1667.173	616.874	98.715	-1636.231	564.644	148.298	-1423.212	567.440	222.161	-2120.547	707.098	969.500
-1939.885	845.938	973.158	-1939.556	600.946	992.399	-1772.641	664.879	519.466	-1791.462	570.017	525.300	-1658.777	617.674	99.025	-1628.411	565.117	148.844	-1416.010	567.251	224.405	-2115.994	706.810	968.539
-1935.358	845.822	972.300	-1935.442	599.901	991.721	-1767.223	664.960	519.553	-1786.108	570.095	525.160	-1650.692	618.475	99.301	-1620.747	565.643	149.211	-1408.933	566.849	226.158	-2111.313	706.530	967.566
-1930.728	845.699	971.375	-1929.798	601.973	990.391	-1761.179	664.913	519.689	-1780.491	570.352	524.751	-1643.287	619.232	99.903	-1613.466	566.213	149.403	-1402.126	566.405	227.741	-2106.650	706.230	966.604
-1926.187	845.576	970.603	-1926.049	599.536	990.682	-1755.479	664.881	519.920	-1775.085	570.512	524.639	-1635.682	620.149	100.242	-1606.575	566.787	149.892	-1395.518	565.818	229.121	-2102.009	705.918	965.713
-1921.629	845.450	969.621	-1920.863	600.126	989.217	-1749.488	664.892	519.945	-1769.613	570.783	524.228	-1628.519	621.164	100.300	-1599.758	567.607	150.040	-1389.028	565.231	229.862	-2097.314	705.661	964.830
-1916.961	845.208	968.937	-1916.694	599.103	988.641	-1743.752	664.955	520.042	-1764.124	570.886	524.022	-1621.583	622.287	100.408	-1592.698	568.974	149.647	-1382.881	564.493	230.625	-2092.627	705.342	964.011
-1912.157	845.145	967.977	-1910.760	601.243	987.267	-1737.924	665.138	520.072	-1758.457	571.134	523.641	-1613.545	624.666	99.381	-1586.531	569.668	149.438	-1376.752	563.826	230.820	-2087.909	704.989	963.257
-1907.601	844.804	967.550	-1906.965	598.564	987.059	-1732.160	665.131	520.157	-1752.896	571.301	523.470	-1607.682	625.405	99.826	-1580.460	570.464	149.248	-1370.838	563.039	230.923	-2083.111	704.649	962.453
-1902.973	844.703	966.770	-1901.721	599.058	986.346	-1726.268	665.204	520.140	-1747.325	571.493	523.197	-1601.774	626.299	99.854	-1574.774	571.150	149.108	-1365.424	562.078	230.936	-2078.284	704.279	961.796
-1898.048	844.478	965.982	-1896.318	600.258	985.182	-1720.387	665.341	520.277	-1741.650	571.773	522.825	-1596.068	627.353	99.677	-1569.135	571.995	148.617	-1360.051	561.272	230.515	-2073.383	703.937	961.090
-1893.548	844.393	965.513	-1891.318	600.098	984.363	-1714.618	665.610	520.113	-1736.078	571.928	522.561	-1590.670	628.427	99.517	-1563.945	572.850	148.183	-1354.764	560.523	230.000	-2068.512	703.536	960.444
-1888.725	844.084	964.903	-1887.124	597.802	984.638	-1708.940	665.735	520.176	-1730.398	572.067	522.214	-1585.462	629.618	99.265	-1558.961	573.628	147.740	-1349.828	559.882	229.426	-2063.617	703.155	959.926
-1883.916	843.903	964.253	-1882.284	597.263	983.695	-1703.080	665.795	519.963	-1724.999	572.280	521.899	-1580.218	630.830	98.551	-1554.467	574.343	146.881	-1345.116	559.332	228.411	-2058.634	702.819	959.360
-1878.982	843.692	963.540	-1876.170	599.252	982.554	-1697.222	666.010	520.007	-1719.476	572.461	521.487	-1575.548	632.046	98.045	-1549.566	575.461	146.368	-1340.653	558.843	227.549	-2053.624	702.413	958.820
-1874.286	843.609	963.209	-1872.211	596.220	983.027	-1691.485	665.988	519.751	-1714.049	572.663	521.100	-1570.991	633.142	97.451	-1545.118	576.370	145.317	-1336.390	558.449	226.296	-2048.597	702.025	958.333
-1869.394	843.385	962.705	-1866.228	597.254	981.838	-1686.101	666.254	519.533	-1708.442	572.919	520.635	-1566.642	634.231	96.491	-1541.111	577.370	144.231	-1332.146	558.172	224.861	-2043.478	701.555	957.936
-1864.568	843.206	962.247	-1861.529	596.167	981.589	-1680.321	666.534	519.201	-1703.150	572.950	520.284	-1562.628	635.241	95.571	-1537.238	578.128	143.223	-1328.213	558.035	223.205	-2038.269	701.115	957.511
-1859.659	843.017	961.940	-1854.997	598.274	980.474	-1674.850	666.647	518.938	-1697.696	573.172	519.708	-1558.912	636.111	94.641	-1533.436	578.930	142.183	-1324.314	558.155	221.278	-2033.071	700.589	957.096
-1854.739	842.876	961.456	-1851.248	595.089	981.245	-1669.392	666.937	518.410	-1692.437	573.370	519.289	-1555.555	636.886	93.633	-1529.840	579.549	140.870	-1320.458	558.504	219.103	-2027.887	700.028	956.775
-1849.962	842.831	961.254	-1845.753	595.078	980.856	-1664.140	667.185	518.094	-1687.058	573.575	518.716	-1552.411	637.736	92.369	-1526.408	580.367	139.463	-1316.940	558.814	217.003	-2022.505	699.584	956.411
-1845.014	842.636	961.087	-1840.266	594.865	980.593	-1658.984	667.493	517.465	-1681.687	573.847	518.032	-1549.491	638.525	90.920	-1523.188	581.057	137.967	-1313.439	559.473	214.526	-2017.210	699.023	956.214
-1839.980	842.423	960.934	-1834.581	594.425	980.281	-1653.881	667.824	516.689	-1676.520	573.985	517.498	-1546.826	639.240	89.576	-1520.770	581.338	136.912	-1310.131	560.334	211.829	-2011.799	698.517	956.019
-1834.788	842.373	960.496	-1828.735	594.408	979.665	-1648.957	668.261	516.137	-1671.420	574.217	516.772	-1544.625	639.774	88.224	-1517.964	582.064	135.175	-1307.082	561.314	209.149	-2006.337	697.927	955.825
-1829.704	842.184	960.410	-1823.093	594.230	979.458	-1643.963	668.394	515.402	-1666.307	574.430	515.947	-1542.566	640.285	86.744	-1515.634	582.646	133.666	-1303.976	562.435	206.094	-2000.740	697.337	955.627
-1824.540	842.080	960.311	-1817.208	594.195	979.357	-1639.136	668.711	514.612	-1661.204	574.548	515.285	-1540.726	640.831	84.983	-1512.905	583.342	131.961	-1301.258	563.754	203.218	-1995.092	696.724	955.388
-1819.272	842.015	960.044	-1811.305	593.618	979.023	-1634.262	669.045	513.823	-1656.184	574.813	514.426	-1539.238	641.011	83.486	-1510.673	583.959	130.024	-1298.129	565.862	199.900	-1989.458	695.993	955.306
-1813.949	841.801	960.083	-1805.367	593.540	979.073	-1629.604	669.344	512.762	-1651.348	574.905	513.637	-1537.707	641.499	81.540	-1508.909	584.495	128.303	-1295.663	567.511	196.575	-1983.661	695.381	955.180
-1808.516	841.697	959.924	-1799.191	593.535	978.337	-1624.670	669.766	511.904	-1646.577	575.126	512.849	-1536.669	641.890	79.613	-1507.043	585.082	126.214	-1293.505	569.079	193.331	-1977.809	694.704	955.135
-1802.997	841.503	959.874	-1793.061	593.724	978.585	-1620.230	670.047	510.819	-1641.759	575.378	511.880	-1535.759	642.217	77.819	-1506.383	585.210	124.957	-1291.561	570.777	189.822	-1971.875	694.026	955.036
-1797.519	841.350	959.954	-1786.939	592.725	978.379	-1615.537	670.472	509.771	-1637.048	575.609	510.802	-1535.168	642.698	75.728	-1504.928	585.926	122.695	-1289.506	572.836	186.239	-1965.904	693.357	955.031
-1791.957	841.093	959.964	-1780.633	592.735	978.322	-1611.306	670.799	508.653	-1632.381	575.816	509.977	-1534.894	643.065	73.857	-1504.087	586.670	120.899	-1287.936	574.492	182.378	-1959.956	692.632	955.033
-1786.256	840.905	959.826	-1774.232	592.775	977.880	-1606.993	671.294	507.528	-1627.755	576.105	508.876	-1534.778	643.473	71.736	-1502.968	587.405	118.316	-1286.471	576.585	178.348	-1953.839	691.935	955.076
-1780.522	840.567	959.964	-1768.033	591.758	978.484	-1602.652	671.643	506.165	-1623.110	576.367	507.742	-1534.760	643.961	69.495	-1502.290	588.144	115.988	-1285.421	578.549	174.273	-1947.595	691.255	955.085
-1774.526	840.248	960.002	-1761.386	591.896	977.669	-1598.336	672.083	504.903	-1618.597	576.645	506.700	-1535.076	644.370	67.483	-1501.789	588.955	113.553	-1284.624	580.522	170.194	-1941.303	690.478	955.136
-1768.450	839.988	959.831	-1754.820	591.642	977.913	-1594.336	672.549	503.670	-1614.085	576.910	505.464	-1535.489	644.932	65.727	-1501.659	589.847	111.288	-1283.942	582.411	166.043	-1934.889	689.812	955.243
-1762.412	839.594	960.039	-1748.310	590.950	977.962	-1590.140	672.953	502.346	-1609.585	577.287	504.150	-1535.546	645.413	64.263	-1501.352	590.691	109.105	-1282.981	584.038	162.326	-1928.589	689.077	955.422
-1756.336	839.216	960.064	-1741.705	590.728	978.104	-1586.066	673.362	500.966	-1605.303	577.577	502.795	-1535.128	645.880	62.003	-1500.869	591.581	107.091	-1281.005	585.412	158.861	-1922.064	688.411	955.468
-1750.144	838.891	959.994	-1735.004	590.535	977.630	-1582.226	673.711	499.593	-1601.043	577.979	501.647	-1534.101	646.725	60.922	-1499.807	592.509	105.103	-1278.450	586.862	155.958	-1915.651	687.745	955.644
-1743.647	838.365	960.006	-1728.481	589.868	977.909	-1578.708	674.168	498.193	-1596.905	578.442	500.342	-1532.639	647.521	60.160	-1498.067	593.349	104.153	-1276.661	588.190	153.230	-1909.221	687.072	955.824
-1737.140	837.814	959.907	-1721.832	589.668	977.525	-1575.205	674.501	496.717	-1592.930	578.747	498.993	-1530.597	648.415	60.163	-1495.299	594.098	103.461	-1274.811	589.383	150.515	-1902.739	686.401	955.983
-1730.840	837.426	959.938	-1715.234	589.199	977.654	-1571.882	674.826	495.205	-1589.307	578.931	497.813	-1528.346	649.192	60.850	-1492.230	594.681	103.321	-1272.521	590.679	147.428	-1896.329	685.611	956.288
-1724.504	836.913	960.220	-1708.810	588.699	977.696	-1568.752	675.073	493.958	-1585.745	579.090	496.698	-1525.957	649.943	62.039	-1488.476	595.314	103.000	-1269.640	592.066	143.395	-1889.919	684.935	956.489
-1717.852	836.410	960.001	-1702.404	588.408	977.814	-1565.628	675.630	492.555	-1582.647	578.980	495.762	-1523.670	650.461	63.609	-1484.738	595.679	103.017	-1266.134	593.331	138.429	-1883.518	684.236	956.769
-1711.293	835.784	960.041	-1695.845	588.364	977.647	-1562.756	676.205	491.536	-1579.495	578.850	494.950	-1521.406	650.902	64.826	-1481.273	595.855	103.003	-1261.654	594.215	133.154	-1877.191	683.638	957.136
-1704.899	835.224	960.243	-1689.606	587.920	978.177	-1559.556	676.772	490.857	-1575.934	578.672	494.521	-1519.421	650.974	65.890	-1477.943	596.083	102.722	-1257.218	595.239	128.194	-1870.882	683.061	957.463
-1698.250	834.736	960.261	-1683.651	587.286	979.075	-1556.508	677.392	490.725	-1572.236	578.399	494.341	-1517.926	650.921	66.755	-1475.322	596.126	102.536	-1254.258	596.547	123.736	-1864.693	682.531	957.904
-1691.624	834.160	960.317	-1677.406	587.011	979.003	-1553.176	677.832	491.110	-1567.971	578.085	494.816	-1516.645	650.740	67.472	-1473.166	596.031	102.318	-1252.344	597.887	119.890	-1858.419	682.200	958.205
-1685.220	833.429	960.675	-1671.439	586.593	979.840	-1549.581	678.007	492.010	-1563.519	577.779	495.329	-1515.642	650.446	67.914	-1471.212	596.059	101.859	-1250.350	599.059	116.320	-1852.330	681.831	958.610
-1678.689	832.932	960.903	-1665.570	585.772	980.971	-1545.548	677.847	492.974	-1557.814	577.541	495.990	-1514.686	650.386	68.237	-1469.712	596.094	101.538	-1248.352	599.955	112.897	-1846.208	681.598	959.085
-1671.989	832.166	961.119	-1659.839	585.408	981.591	-1540.977	677.464	494.012	-1551.961	577.325	496.745	-1513.791	650.208	68.719	-1468.430	596.024	101.421	-1246.509	600.466	109.543	-1840.105	681.476	959.446
-1665.474	831.527	961.434	-1654.093	584.764	982.293	-1535.976	676.778	495.005	-1545.332	577.129	497.366	-1512.695	650.172	69.074	-1467.059	595.894	101.367	-1244.996	600.452	106.448	-1834.150	681.390	959.925
-1659.102	830.750	961.849	-1648.466	584.013	983.331	-1530.939	675.959	495.982	-1539.454	576.781	498.062	-1511.821	650.036	69.598	-1465.652	595.710	101.289	-1243.529	600.045	103.474	-1828.342	681.400	960.453
-1652.541	829.856	962.281	-1642.813	583.112	984.519	-1525.896	675.207	496.782	-1534.511	576.331	498.786	-1510.794	649.961	70.329	-1464.266	595.533	101.117	-1242.262	599.351	100.611	-1822.514	681.480	961.150
-1646.086	829.015	962.706	-1637.285	582.318	985.303	-1520.603	674.305	497.051	-1529.272	575.867	499.494	-1510.068	649.905	70.801	-1463.259	595.299	101.066	-1241.178	598.317	98.056	-1816.710	681.641	961.642
-1639.804	828.094	963.161	-1631.656	580.766	986.921	-1515.561	673.319	497.582	-1523.634	575.337	500.386	-1509.269	649.859	71.279	-1462.835	594.710	100.733	-1240.293	597.413	95.386	-1811.011	681.792	962.361
-1633.342	827.069	963.604	-1625.948	579.649	988.071	-1510.673	672.418	498.137	-1518.842	574.631	501.324	-1508.318	649.854	71.731	-1462.051	593.986	100.883	-1239.463	596.358	93.089	-1805.330	682.079	962.907
-1627.110	826.071	964.147	-1620.221	578.286	989.464	-1505.788	671.414	498.549	-1514.592	573.848	501.939	-1507.289	649.787	72.066	-1461.299	593.672	100.783	-1238.854	594.861	90.820	-1799.619	682.141	963.667
-1620.963	825.075	964.905	-1614.503	576.806	990.761	-1501.215	670.412	499.214	-1510.083	573.073	502.467	-1506.454	649.631	72.320	-1460.377	593.184	100.672	-1237.972	593.970	88.389	-1793.959	682.267	964.300
-1614.736	824.029	965.417	-1609.191	575.746	991.903	-1496.582	669.478	499.904	-1505.698	572.265	502.854	-1507.039	647.850	74.157	-1459.257	592.826	100.358	-1237.141	593.200	86.090	-1788.268	682.297	965.030
-1608.676	823.115	966.065	-1604.182	574.946	992.759	-1491.895	668.304	500.472	-1501.589	571.380	503.273	-1506.329	647.523	74.854	-1458.677	591.875	100.591	-1236.284	592.807	83.753	-1782.571	682.336	965.702
-1602.792	822.152	966.804	-1598.664	573.552	994.295	-1487.699	667.181	500.949	-1497.440	570.575	503.465	-1505.708	647.275	75.371	-1457.558	591.603	100.496	-1235.278	592.522	81.260	-1776.864	682.365	966.381
-1596.868	821.109	967.428	-1593.265	572.776	995.270	-1483.518	666.112	501.463	-1493.048	569.843	503.673	-1504.868	647.189	75.955	-1456.653	591.377	100.424	-1234.282	592.395	78.918	-1771.298	682.234	967.219
-1591.137	820.298	968.237	-1587.989	572.237	995.642	-1479.013	665.078	501.943	-1489.530	569.129	503.752	-1504.085	647.168	76.463	-1455.291	591.537	99.854	-1233.405	592.373	76.665	-1765.695	682.124	967.952
-1585.415	819.463	968.988	-1582.094	570.713	997.281	-1474.760	664.241	502.255	-1486.436	568.390	503.614	-1503.421	647.217	76.753	-1454.532	591.170	99.666	-1232.540	592.435	74.463	-1760.128	681.841	968.690
-1579.871	818.666	969.959	-1577.017	570.329	997.781	-1471.054	663.555	502.339	-1482.914	567.905	503.404	-1502.867	647.322	77.019	-1453.422	591.635	99.421	-1231.648	592.469	72.380	-1754.556	681.422	969.462
-1574.221	817.758	970.681	-1571.657	569.540	998.587	-1467.202	662.908	502.229	-1479.703	567.379	503.239	-1502.378	647.482	77.172	-1452.635	591.776	99.300	-1230.847	592.433	71.055	-1748.985	680.888	970.123
-1568.671	817.059	971.562	-1565.011	568.049	999.948	-1463.827	662.368	501.904	-1476.521	567.007	502.827	-1501.992	647.716	77.280	-1452.124	591.859	99.214	-1230.450	592.465	69.926	-1743.415	680.256	970.835
-1563.142	816.358	972.431	-1559.588	567.387	1000.384	-1460.798	662.049	501.815	-1473.706	566.682	502.749	-1501.646	647.984	77.243	-1451.761	592.143	99.236	-1230.429	592.397	69.317	-1737.960	679.520	971.535
-1557.737	815.598	973.236	-1554.024	566.456	1001.123	-1457.742	661.857	501.461	-1470.751	566.539	502.566	-1501.434	648.297	77.301	-1451.781	592.277	99.573	-1230.316	592.468	68.851	-1732.568	678.740	972.196
-1552.423	814.873	974.053	-1548.739	565.720	1001.879	-1454.829	661.711	501.575	-1467.939	566.461	502.405	-1501.204	648.607	77.246	-1451.509	592.591	99.642	-1229.915	592.726	68.117	-1727.253	677.853	972.899
-1547.047	814.210	974.791	-1544.511	565.710	1001.458	-1452.580	661.700	501.423	-1465.377	566.342	502.381	-1501.053	648.878	77.201	-1451.234	592.911	99.580	-1229.553	593.074	67.275	-1722.021	676.954	973.607
-1541.572	813.292	975.379	-1539.197	564.958	1001.959	-1450.114	661.609	501.540	-1462.898	566.278	502.417	-1500.979	649.071	77.248	-1451.034	593.120	99.631	-1229.234	593.417	66.588	-1716.829	676.086	974.185
-1536.348	812.680	976.139	-1533.769	563.920	1003.006	-1448.159	661.499	501.519	-1460.420	566.168	502.293	-1500.896	649.207	77.277	-1450.846	593.290	99.640	-1229.100	593.639	66.251	-1711.637	675.139	974.866
-1531.423	812.260	977.380	-1528.606	563.433	1003.268	-1445.868	661.362	501.790	-1458.050	566.117	502.378	-1500.864	649.262	77.304	-1450.686	593.428	99.668	-1229.010	593.774	65.994	-1706.454	674.236	975.466
-1526.192	811.581	978.221	-1523.867	563.036	1003.728	-1444.108	661.369	502.024	-1455.324	566.087	502.538	-1500.844	649.244	77.397	-1450.637	593.504	99.687	-1228.968	593.927	65.851	-1701.240	673.414	976.033
-1521.037	810.887	979.368	-1518.092	561.818	1005.295	-1442.364	661.357	502.219	-1453.707	565.983	502.675	-1500.863	649.248	77.437	-1450.602	593.568	99.784	-1228.969	594.027	65.722	-1696.187	672.582	976.758
-1515.883	810.305	980.301	-1513.177	561.278	1005.972	-1440.701	661.308	502.403	-1451.260	565.898	503.012	-1500.807	649.362	77.416	-1450.545	593.625	99.880	-1229.183	593.882	65.655	-1691.144	671.869	977.486
-1510.522	809.351	980.781	-1508.294	560.768	1006.947	-1439.567	661.762	502.218	-1449.303	565.869	503.289	-1500.767	649.493	77.351	-1450.489	593.718	99.931	-1229.202	594.013	65.573	-1686.181	671.302	978.381
-1505.484	808.859	981.798	-1503.320	560.147	1007.732	-1438.561	661.317	502.272	-1447.404	565.726	503.470	-1500.671	649.672	77.280	-1450.431	593.801	99.974	-1229.210	594.128	65.559	-1681.176	670.760	979.289
-1500.479	808.202	983.140	-1498.030	559.248	1009.041	-1436.739	661.146	502.378	-1445.529	565.569	503.629	-1500.586	649.845	77.201	-1450.417	593.841	100.042	-1229.182	594.262	65.514	-1676.210	670.305	980.257
-1495.748	807.976	984.752	-1493.051	558.820	1009.944	-1435.256	661.047	502.334	-1444.068	565.384	503.726	-1500.356	650.069	76.975	-1450.352	593.816	100.115	-1229.154	594.358	65.507	-1671.251	669.855	981.252
-1490.604	807.263	985.391	-1488.448	558.519	1010.533	-1433.903	660.867	502.420	-1442.306	565.118	503.869	-1500.241	650.211	76.826	-1450.399	593.766	100.163	-1229.171	594.424	65.502	-1666.151	669.462	982.364
-1485.727	807.125	987.179	-1483.094	557.701	1011.435	-1432.568	660.542	502.483	-1440.545	564.869	503.985	-1500.194	650.219	76.725	-1449.186	594.988	99.511	-1229.188	594.433	65.558	-1661.193	669.015	983.597
-1480.559	806.181	987.998	-1478.049	557.145	1012.393	-1431.253	660.246	502.567	-1438.908	564.598	504.129	-1500.310	650.112	76.729	-1449.303	594.722	99.786	-1229.211	594.423	65.599	-1656.131	668.596	984.808
-1475.529	805.662	989.512	-1473.182	556.755	1013.113	-1429.902	660.162	502.822	-1437.312	564.331	504.231	-1501.220	649.166	77.526	-1449.300	594.599	99.886	-1229.227	594.458	65.633	-1650.416	668.292	985.634
-1470.918	805.489	991.160	-1468.321	556.444	1013.570	-1428.638	659.985	502.861	-1435.796	564.051	504.347	-1501.272	649.105	77.554	-1449.306	594.515	99.897	-1229.263	594.503	65.700	-1645.290	667.968	986.955
-1465.807	804.636	992.025	-1463.061	555.605	1014.439	-1427.497	659.758	502.868	-1434.120	563.801	504.369	-1501.332	649.080	77.623	-1449.374	594.429	99.919	-1229.349	594.549	65.740	-1640.190	667.623	988.205
-1460.867	804.160	993.391	-1458.248	555.152	1015.408	-1426.263	659.473	502.822	-1432.698	563.505	504.410	-1501.372	649.080	77.618	-1449.429	594.368	99.919	-1229.384	594.644	65.816	-1635.008	667.257	989.376
-1455.962	803.573	994.660	-1453.227	554.845	1015.766	-1424.989	659.234	502.793	-1431.283	563.177	504.444	-1501.455	648.985	77.674	-1449.473	594.258	99.973	-1229.433	594.698	65.875	-1630.018	666.870	990.722
-1451.138	802.992	995.992	-1448.431	554.546	1016.137	-1423.728	658.939	502.821	-1429.772	562.860	504.518	-1501.534	648.909	77.735	-1449.556	594.161	100.012	-1229.486	594.725	65.951	-1624.909	666.448	991.899
-1446.521	802.961	997.645	-1443.219	553.776	1017.097	-1422.776	658.525	502.768	-1428.378	562.495	504.657	-1501.600	648.776	77.806	-1449.594	594.000	100.075	-1229.566	594.681	66.096	-1619.960	666.027	993.050
-1441.462	802.056	998.340	-1438.358	553.256	1017.587	-1421.534	658.213	502.874	-1427.073	562.109	504.716	-1501.679	648.643	77.843	-1449.566	593.808	100.232	-1229.679	594.646	66.254	-1615.080	665.580	994.262
-1436.617	801.586	999.565	-1433.830	552.998	1017.993	-1419.790	657.895	502.970	-1425.731	561.687	504.843	-1501.816	648.510	77.935	-1449.476	593.756	100.294	-1229.711	594.594	66.372	-1610.055	665.167	995.224
-1431.704	801.044	1000.744	-1428.838	552.302	1018.524	-1418.476	657.576	503.079	-1424.331	561.413	504.827	-1501.848	648.453	77.976	-1449.460	593.707	100.283	-1229.797	594.535	66.458	-1605.126	664.883	996.308
-1426.877	800.457	1002.006	-1424.017	551.627	1019.112	-1417.072	657.178	503.095	-1422.843	561.071	504.855	-1502.523	648.016	77.988	-1449.546	593.666	100.305	-1229.921	594.478	66.530	-1600.333	664.530	997.316
-1422.096	799.901	1003.046	-1419.246	551.173	1019.270	-1416.009	656.760	503.218	-1421.530	560.752	504.817	-1501.984	648.474	78.065	-1449.582	593.646	100.315	-1229.937	594.430	66.539	-1595.504	664.216	998.196
-1417.112	799.240	1004.227	-1414.875	550.681	1019.738	-1413.955	656.460	503.327	-1420.154	560.407	504.780	-1502.066	648.472	78.168	-1449.655	593.613	100.364	-1230.008	594.360	66.495	-1590.599	663.947	999.056
-1412.488	798.934	1005.539	-1409.866	549.752	1020.094	-1412.124	656.027	503.210	-1418.778	560.041	504.788	-1502.061	648.471	78.217	-1449.686	593.563	100.423	-1229.995	594.287	66.429	-1585.824	663.664	999.857
-1407.750	798.020	1006.050	-1405.228	549.140	1020.438	-1410.459	655.630	503.149	-1417.376	559.687	504.836	-1502.020	648.442	78.236	-1449.682	593.502	100.462	-1229.965	594.192	66.267	-1581.028	663.362	1000.560
-1404.061	796.416	1006.773	-1400.761	548.605	1020.621	-1409.052	655.260	503.180	-1416.034	559.420	504.821	-1502.022	648.369	78.353	-1449.663	593.498	100.509	-1229.915	594.146	66.047	-1576.228	663.116	1001.263
-1398.737	796.178	1007.297	-1395.798	547.699	1020.857	-1406.869	654.944	503.199	-1414.391	559.138	504.617	-1502.054	648.386	78.400	-1449.553	593.570	100.526	-1229.796	594.083	65.842	-1571.328	662.920	1001.803
-1393.900	795.450	1008.105	-1391.574	547.204	1020.580	-1404.798	654.490	503.138	-1412.935	558.940	504.534	-1501.978	648.498	78.428	-1449.558	593.613	100.621	-1229.569	594.352	65.595	-1566.607	662.750	1002.385
-1389.015	794.737	1008.875	-1386.733	546.404	1020.642	-1402.896	654.225	503.045	-1411.372	558.692	504.529	-1501.927	648.596	78.465	-1449.515	593.712	100.689	-1229.422	594.534	65.334	-1561.894	662.574	1002.870
-1384.386	793.672	1009.748	-1381.484	545.792	1020.379	-1400.870	653.996	502.839	-1409.787	558.547	504.419	-1501.363	649.084	78.522	-1449.405	593.839	100.706	-1229.365	594.547	65.081	-1557.096	662.501	1003.250
-1379.428	792.913	1010.325	-1377.233	545.168	1020.270	-1398.953	653.758	502.594	-1408.200	558.419	504.308	-1502.993	647.538	79.896	-1449.342	593.948	100.748	-1229.270	594.560	64.793	-1552.404	662.344	1003.694
-1374.482	792.154	1010.909	-1372.636	544.458	1019.915	-1396.834	653.559	502.524	-1406.396	558.311	504.106	-1503.220	647.126	80.562	-1449.223	594.071	100.803	-1229.129	594.597	64.426	-1547.698	662.209	1003.966
-1369.137	791.682	1011.202	-1366.922	543.104	1020.693	-1394.696	653.356	502.301	-1404.551	558.147	503.951	-1502.875	647.364	80.499	-1449.078	594.175	100.824	-1228.958	594.662	63.923	-1542.955	662.049	1004.283
-1364.344	791.005	1011.810	-1363.695	543.080	1019.252	-1392.585	653.171	502.087	-1402.661	558.020	503.794	-1502.646	647.530	80.495	-1448.899	594.236	100.830	-1228.655	594.700	63.397	-1538.206	661.852	1004.502
-1359.432	790.349	1012.227	-1357.918	541.609	1020.143	-1390.396	652.846	502.060	-1400.424	557.886	503.716	-1502.493	647.656	80.575	-1448.711	594.329	100.887	-1228.342	594.739	62.788	-1533.465	661.721	1004.629
-1354.256	789.597	1012.380	-1353.337	540.965	1019.738	-1387.948	652.529	501.881	-1398.539	557.768	503.519	-1502.456	647.705	80.750	-1448.542	594.411	100.930	-1227.911	594.701	62.267	-1528.751	661.593	1004.711
-1349.292	788.858	1012.858	-1348.796	540.503	1019.178	-1385.933	652.410	501.544	-1396.465	557.690	503.262	-1502.254	647.856	80.830	-1448.290	594.559	100.977	-1227.596	594.859	61.663	-1524.015	661.498	1004.845
-1344.404	788.233	1013.066	-1344.462	539.732	1018.585	-1384.806	652.741	501.190	-1394.472	557.578	503.089	-1502.161	647.932	80.978	-1448.068	594.682	100.975	-1227.322	594.878	61.039	-1519.237	661.412	1004.872
-1339.469	787.619	1012.863	-1339.802	539.042	1018.700	-1382.797	652.705	501.110	-1392.411	557.552	502.850	-1501.977	648.040	81.091	-1447.765	595.044	100.814	-1226.960	594.903	60.345	-1514.499	661.306	1004.826
-1334.522	786.997	1013.212	-1335.511	538.669	1017.967	-1380.457	652.543	500.756	-1390.329	557.428	502.558	-1501.914	648.057	81.223	-1447.617	595.130	100.830	-1226.653	594.939	59.637	-1509.877	661.076	1004.784
-1330.055	785.996	1013.460	-1331.040	537.820	1017.794	-1378.137	652.305	500.502	-1388.030	557.263	502.366	-1501.750	648.110	81.326	-1447.351	595.239	100.822	-1226.338	594.951	58.967	-1505.039	660.944	1004.715
-1324.825	785.827	1013.095	-1326.120	537.466	1017.130	-1376.236	652.178	500.353	-1385.954	557.112	502.090	-1501.549	648.121	81.356	-1447.197	595.260	100.838	-1226.043	594.937	58.427	-1500.200	660.740	1004.522
-1320.076	785.533	1013.119	-1321.245	537.210	1016.408	-1373.995	652.120	500.240	-1384.288	556.844	501.918	-1501.398	648.155	81.443	-1447.013	595.319	100.902	-1225.810	594.897	57.898	-1495.497	660.544	1004.262
-1314.917	784.994	1012.755	-1317.023	536.496	1016.224	-1371.572	651.881	499.753	-1381.703	556.820	501.693	-1501.343	648.116	81.564	-1446.816	595.424	100.968	-1225.597	594.895	57.307	-1490.744	660.337	1004.046
-1309.966	784.606	1012.916	-1312.579	535.964	1016.053	-1369.222	651.829	499.461	-1379.811	556.649	501.370	-1501.143	648.247	81.584	-1446.711	595.476	101.061	-1225.298	594.925	56.724	-1485.883	660.150	1003.721
-1304.982	784.319	1012.432	-1307.456	535.913	1015.421	-1367.238	651.720	499.209	-1377.737	556.570	501.134	-1501.141	648.249	81.746	-1446.548	595.647	101.096	-1225.103	594.898	56.199	-1481.104	659.962	1003.348
-1300.034	784.021	1012.563	-1305.614	535.461	1014.200	-1364.580	651.423	498.853	-1375.561	556.490	500.795	-1501.033	648.341	81.830	-1446.406	595.734	101.171	-1224.909	594.860	55.803	-1476.382	659.792	1002.986
-1295.440	783.636	1012.465	-1302.144	535.451	1013.930	-1362.303	651.219	498.436	-1373.390	556.332	500.474	-1500.931	648.379	81.950	-1446.312	595.811	101.247	-1224.811	594.879	55.413	-1471.452	659.531	1002.520
-1290.273	783.530	1011.805	-1297.079	535.394	1013.465	-1360.208	651.175	498.333	-1371.175	556.179	500.233	-1500.770	648.430	82.037	-1446.134	595.955	101.302	-1224.649	594.834	55.059	-1466.544	659.384	1001.943
-1285.445	783.510	1010.926	-1291.795	535.085	1012.918	-1357.700	650.960	497.875	-1369.224	556.025	500.082	-1500.654	648.440	82.166	-1445.984	596.001	101.350	-1224.528	594.818	54.708	-1461.759	659.088	1001.492
-1280.513	783.322	1010.979	-1286.719	534.668	1012.580	-1355.441	650.933	497.585	-1366.993	555.921	499.817	-1500.500	648.475	82.267	-1445.817	596.111	101.414	-1224.244	594.818	54.248	-1456.787	658.888	1000.853
-1275.370	783.084	1010.310	-1281.579	534.398	1011.999	-1353.218	650.786	497.166	-1364.821	555.837	499.459	-1500.395	648.494	82.464	-1445.703	596.125	101.561	-1224.106	594.759	53.812	-1451.891	658.651	1000.278
-1270.422	783.025	1010.218	-1276.273	534.399	1011.520	-1350.812	650.583	496.955	-1363.087	555.961	499.164	-1500.287	648.590	82.613	-1445.479	596.271	101.642	-1223.994	594.753	53.439	-1446.988	658.443	999.633
-1265.593	782.961	1009.092	-1271.339	534.028	1011.042	-1348.445	650.367	496.495	-1360.945	555.885	498.824	-1500.159	648.632	82.771	-1445.360	596.440	101.735	-1223.808	594.782	53.055	-1442.013	658.300	999.095
-1260.723	782.908	1009.039	-1266.283	533.972	1010.352	-1346.463	650.443	496.383	-1358.875	555.755	498.574	-1500.067	648.761	82.897	-1445.230	596.574	101.853	-1223.684	594.767	52.729	-1437.134	658.098	998.432
-1255.648	782.722	1008.128	-1261.376	533.831	1009.731	-1344.089	650.309	495.986	-1356.650	555.714	498.265	-1499.951	648.849	82.975	-1445.113	596.649	102.012	-1223.569	594.790	52.398	-1432.106	657.938	997.854
-1250.601	782.681	1007.977	-1256.336	533.556	1009.146	-1341.753	650.215	495.554	-1354.676	555.564	498.082	-1499.825	648.898	83.031	-1444.957	596.746	102.061	-1223.450	594.745	52.112	-1427.053	657.743	997.131
-1245.560	782.601	1006.847	-1251.213	533.367	1008.392	-1339.772	650.132	495.144	-1352.416	555.490	497.697	-1499.741	648.904	83.163	-1444.808	596.816	102.221	-1223.364	594.651	51.882	-1422.026	657.527	996.581
-1240.526	782.578	1006.265	-1246.342	533.136	1007.787	-1337.545	650.044	494.921	-1350.306	555.375	497.344	-1499.647	648.909	83.279	-1444.450	596.976	102.142	-1223.281	594.602	51.621	-1416.846	657.350	995.842
-1235.402	782.393	1005.796	-1240.823	533.120	1006.793	-1335.162	649.908	494.446	-1347.693	555.337	497.107	-1499.567	648.933	83.381	-1444.280	597.037	102.325	-1223.182	594.554	51.431	-1411.808	657.158	995.289
-1230.233	782.363	1004.613	-1235.941	532.829	1006.284	-1332.959	649.850	494.146	-1345.698	555.255	496.846	-1499.431	649.068	83.434	-1444.050	597.198	102.478	-1223.043	594.553	51.101	-1406.713	657.002	994.656
-1224.944	782.175	1004.214	-1230.822	532.738	1005.406	-1331.481	649.885	493.934	-1343.460	555.233	496.525	-1499.397	649.115	83.594	-1443.867	597.262	102.711	-1222.964	594.541	50.758	-1401.522	656.833	994.098
-1219.832	782.045	1003.556	-1225.444	532.761	1004.538	-1328.415	649.709	493.392	-1341.379	555.157	496.244	-1499.248	649.244	83.717	-1443.654	597.435	102.948	-1222.776	594.523	50.382	-1396.408	656.721	993.519
-1214.659	782.094	1002.519	-1220.527	532.504	1003.669	-1326.769	649.677	493.040	-1339.186	555.149	496.068	-1499.128	649.371	83.813	-1443.355	597.568	103.095	-1222.665	594.532	49.986	-1391.140	656.689	992.838
-1209.252	781.766	1002.039	-1215.304	532.274	1003.072	-1324.188	649.716	492.725	-1337.506	554.973	495.683	-1499.054	649.477	84.011	-1443.117	597.738	103.329	-1222.454	594.429	49.622	-1385.887	656.524	992.155
-1204.049	781.709	1001.016	-1209.799	532.361	1001.704	-1322.141	649.647	492.359	-1334.734	555.091	495.372	-1498.815	649.571	84.152	-1442.791	597.854	103.517	-1222.274	594.461	49.218	-1380.520	656.458	991.430
-1198.849	781.551	1000.219	-1204.816	531.996	1000.960	-1319.590	649.627	492.018	-1332.953	554.987	495.110	-1498.723	649.623	84.386	-1442.551	597.977	103.748	-1222.137	594.395	48.963	-1375.261	656.320	990.816
-1193.297	781.370	999.975	-1199.696	531.681	1000.395	-1316.970	649.730	491.594	-1330.589	555.052	494.804	-1498.487	649.764	84.551	-1442.268	598.145	104.034	-1222.057	594.370	48.681	-1369.840	656.260	990.086
-1188.140	781.160	998.762	-1194.283	531.753	999.031	-1314.806	649.701	491.128	-1328.311	555.093	494.498	-1498.328	649.909	84.748	-1442.017	598.291	104.335	-1221.980	594.339	48.437	-1364.586	656.119	989.500
-1182.517	780.916	997.513	-1189.186	531.479	998.160	-1312.227	649.794	490.812	-1325.949	555.158	494.231	-1498.216	650.087	84.950	-1441.898	598.456	104.812	-1221.875	594.325	48.191	-1359.107	656.160	988.755
-1176.818	780.823	997.015	-1183.959	531.228	997.521	-1309.757	649.961	490.388	-1323.475	555.259	493.947	-1498.079	650.280	85.185	-1441.441	598.764	105.012	-1221.716	594.307	47.879	-1353.858	656.141	988.132
-1171.673	780.596	996.167	-1178.622	531.337	996.192	-1306.921	649.985	489.903	-1321.102	555.291	493.685	-1497.923	650.447	85.493	-1441.239	598.985	105.498	-1221.536	594.309	47.590	-1348.347	656.162	987.399
-1165.944	780.607	995.109	-1173.157	531.197	995.339	-1304.424	650.167	489.598	-1318.410	555.530	493.239	-1497.635	650.686	85.768	-1440.870	599.223	105.780	-1221.357	594.267	47.283	-1343.093	656.251	986.662
-1160.459	780.411	994.330	-1168.112	530.959	994.328	-1301.356	650.293	488.915	-1315.763	555.634	492.898	-1497.310	650.914	86.109	-1440.453	599.456	106.179	-1221.093	594.173	46.976	-1337.564	656.302	985.895
-1154.823	780.275	993.435	-1162.829	530.938	993.162	-1298.217	650.337	488.465	-1313.015	555.713	492.579	-1496.934	651.196	86.493	-1440.020	599.649	106.650	-1220.897	594.075	46.724	-1332.266	656.375	985.152
-1149.048	780.034	992.831	-1157.996	530.634	992.277	-1295.225	650.468	487.997	-1310.237	555.824	492.290	-1496.613	651.479	86.899	-1439.560	599.887	107.113	-1220.974	594.267	46.379	-1326.695	656.589	984.315
-1143.897	780.240	991.291	-1152.639	530.705	990.868	-1292.020	650.689	487.368	-1307.413	556.132	491.877	-1496.338	651.717	87.502	-1439.083	600.237	107.496	-1220.867	594.205	46.156	-1321.326	656.763	983.545
-1137.987	780.120	990.780	-1147.186	530.751	990.105	-1289.003	651.015	486.897	-1304.333	556.410	491.416	-1495.864	652.071	88.069	-1438.754	600.508	108.218	-1221.091	593.669	45.926	-1315.858	656.997	982.771
-1132.066	779.837	989.976	-1141.955	530.835	988.700	-1285.492	651.248	486.363	-1301.479	556.690	491.106	-1495.421	652.502	88.844	-1438.259	600.932	108.827	-1221.045	593.603	45.660	-1310.425	657.355	981.873
-1126.780	780.064	989.256	-1136.741	530.726	988.157	-1282.540	651.528	485.923	-1298.394	556.907	490.728	-1495.039	652.909	89.548	-1437.746	601.359	109.432	-1220.875	593.539	45.270	-1304.934	657.656	981.090
-1120.718	779.997	988.287	-1131.309	530.782	987.011	-1278.711	651.719	485.348	-1295.257	557.231	490.506	-1494.480	653.440	90.521	-1437.516	601.668	110.405	-1220.652	593.550	44.826	-1299.502	658.056	980.196
-1115.184	780.082	987.183	-1126.189	530.795	985.833	-1275.269	652.060	484.859	-1292.004	557.563	490.129	-1493.822	653.846	91.366	-1436.622	602.181	110.982	-1220.462	593.460	44.392	-1293.982	658.399	979.411
-1109.260	780.001	986.618	-1120.885	530.688	985.049	-1271.376	652.159	484.400	-1288.695	557.800	489.877	-1493.072	654.343	92.453	-1435.950	602.685	111.638	-1220.249	593.385	43.983	-1288.467	658.801	978.452
-1103.338	779.925	986.263	-1115.535	530.707	984.209	-1267.920	652.496	484.023	-1285.502	558.005	489.683	-1492.345	654.792	93.579	-1435.231	603.208	112.554	-1220.013	593.321	43.550	-1282.966	659.167	977.651
-1097.764	780.168	985.013	-1110.224	530.781	983.280	-1263.786	652.622	483.650	-1282.079	558.259	489.431	-1491.604	655.234	94.844	-1434.869	603.414	113.792	-1219.818	593.249	43.163	-1277.381	659.692	976.691
-1091.860	780.125	984.446	-1105.094	530.636	982.490	-1259.921	652.865	483.398	-1278.641	558.543	489.376	-1490.912	655.733	96.213	-1433.997	603.890	114.832	-1219.691	593.152	42.893	-1271.797	660.149	975.815
-1085.506	779.858	984.158	-1099.545	530.778	981.794	-1256.089	653.123	483.074	-1275.242	558.859	489.356	-1490.107	656.215	97.733	-1433.206	604.353	115.775	-1219.565	593.038	42.671	-1266.132	660.755	974.950
-1080.105	780.295	983.118	-1094.260	530.896	980.867	-1252.263	652.133	483.035	-1271.276	559.190	489.357	-1489.152	656.707	99.235	-1432.192	604.827	116.852	-1219.401	592.965	42.339	-1260.656	661.276	974.128
-1074.099	780.455	982.561	-1088.841	531.081	980.025	-1247.970	652.195	482.891	-1267.628	559.466	489.356	-1488.343	657.042	100.862	-1431.279	605.124	117.988	-1219.308	592.866	41.939	-1254.939	661.876	973.251
-1068.090	780.590	982.396	-1083.611	530.922	979.917	-1243.485	652.304	482.458	-1263.905	559.602	489.374	-1487.388	657.320	102.609	-1430.230	605.436	119.204	-1219.079	592.749	41.625	-1249.256	662.443	972.413
-1062.022	780.744	981.561	-1078.007	531.166	978.920	-1239.192	652.275	482.340	-1260.306	559.757	489.280	-1486.366	657.586	104.435	-1429.164	605.733	120.371	-1218.820	592.578	41.251	-1243.500	663.040	971.551
-1055.863	780.912	981.013	-1072.547	531.154	978.507	-1234.653	652.408	482.049	-1256.356	559.851	489.374	-1485.281	657.781	106.384	-1428.314	605.830	121.948	-1218.568	592.483	40.891	-1237.616	663.701	970.782
-1049.965	781.341	980.591	-1067.286	531.389	978.029	-1229.243	652.361	481.977	-1252.272	559.950	489.387	-1484.192	657.909	108.413	-1427.072	605.942	123.388	-1218.342	592.368	40.567	-1231.846	664.311	970.043
-1043.608	781.389	980.521	-1061.416	531.584	977.284	-1224.693	652.360	481.617	-1247.695	560.061	489.513	-1483.039	657.978	110.540	-1425.896	606.073	124.870	-1218.163	592.303	40.276	-1225.845	665.071	969.327
-1037.186	781.543	980.132	-1056.193	531.646	977.373	-1219.805	652.345	481.393	-1243.450	560.199	489.636	-1481.787	658.085	112.607	-1424.595	606.225	126.300	-1217.963	592.213	39.999	-1219.977	665.739	968.699
-1031.102	781.933	979.957	-1050.420	532.068	976.726	-1215.136	652.505	480.953	-1239.172	560.279	489.523	-1480.608	657.993	115.045	-1423.185	606.273	127.836	-1217.824	592.157	39.749	-1214.035	666.435	968.218
-1024.796	782.394	979.441	-1044.501	532.338	976.087	-1210.656	652.378	480.632	-1234.553	560.243	489.601	-1479.200	657.968	117.418	-1421.888	606.193	129.677	-1217.655	592.077	39.488	-1207.969	667.171	967.642
-1018.556	782.748	979.589	-1038.763	532.525	976.276	-1204.935	652.513	480.258	-1229.611	560.178	489.535	-1477.759	657.773	119.949	-1420.342	606.084	131.458	-1217.378	592.016	39.148	-1201.732	667.988	967.092
-1011.929	783.061	979.215	-1032.931	532.859	975.520	-1199.472	652.392	479.876	-1224.728	560.177	489.571	-1476.238	657.573	122.609	-1418.866	605.874	133.333	-1217.093	591.997	38.833	-1195.636	668.679	966.889
-1005.361	783.312	979.177	-1026.867	533.283	975.191	-1194.786	652.215	479.535	-1219.126	560.081	489.608	-1474.350	657.525	125.157	-1417.714	605.430	135.668	-1216.818	591.961	38.536	-1189.223	669.386	966.605
-998.755	783.617	978.870	-1020.982	533.590	975.327	-1188.686	652.481	478.888	-1213.876	559.850	489.631	-1472.584	657.328	127.965	-1415.846	605.228	137.512	-1216.587	591.966	38.273	-1182.842	670.231	966.296
-992.245	783.988	978.512	-1015.164	533.791	975.310	-1182.885	652.264	478.239	-1208.663	559.561	489.585	-1470.676	657.088	130.984	-1413.465	605.246	139.183	-1216.384	591.968	38.050	-1176.409	670.966	966.066
-985.696	784.472	978.300	-1008.665	534.349	974.675	-1177.434	651.916	478.089	-1202.719	559.456	489.506	-1468.564	656.964	133.847	-1412.059	604.734	141.692	-1216.274	592.010	37.759	-1169.974	671.871	965.942
-978.973	784.729	978.293	-1002.399	534.823	974.614	-1171.030	651.986	477.300	-1197.251	559.164	489.380	-1466.509	656.736	136.901	-1410.039	604.420	143.894	-1216.632	591.775	37.553	-1163.473	672.715	965.840
-971.778	784.898	978.394	-996.417	535.235	974.801	-1164.744	651.704	476.800	-1191.309	558.836	489.384	-1464.091	656.536	140.199	-1407.822	604.144	146.180	-1216.557	591.755	37.399	-1156.869	673.499	965.825
-964.953	785.336	978.362	-989.722	535.871	974.162	-1158.309	651.483	476.338	-1184.802	558.705	489.405	-1461.647	656.312	143.331	-1405.509	603.831	148.398	-1216.475	591.725	37.246	-1150.030	674.411	965.690
-958.127	785.817	978.062	-983.549	536.173	974.479	-1152.089	651.291	475.675	-1178.514	558.243	489.232	-1458.884	656.075	146.739	-1402.955	603.435	150.745	-1216.424	591.652	37.145	-1143.179	675.255	965.608
-951.078	786.296	978.445	-977.129	536.586	974.570	-1145.199	650.890	475.026	-1172.078	557.678	489.293	-1455.988	655.870	150.283	-1400.454	603.073	153.300	-1216.369	591.599	37.092	-1136.308	676.117	965.517
-944.175	786.828	978.067	-970.496	537.116	974.655	-1138.206	650.428	474.549	-1165.338	557.199	489.286	-1452.998	655.633	153.682	-1397.635	602.645	155.825	-1216.335	591.492	37.024	-1129.341	676.946	965.511
-936.508	786.922	978.367	-963.471	537.781	974.148	-1131.156	651.047	473.524	-1158.544	556.420	489.335	-1449.709	655.434	157.379	-1394.709	602.242	158.350	-1216.276	591.422	36.932	-1122.264	677.863	965.330
-929.640	787.482	978.549	-957.031	538.244	974.620	-1123.856	650.405	473.171	-1151.448	555.905	489.079	-1446.194	655.322	161.060	-1391.943	601.902	161.287	-1216.250	591.379	36.799	-1115.097	678.765	965.253
-922.375	788.037	978.293	-950.225	538.760	974.771	-1116.047	649.635	472.311	-1144.299	555.070	489.109	-1442.444	655.216	164.843	-1388.555	601.479	163.851	-1216.220	591.330	36.727	-1107.920	679.665	965.102
-915.335	788.780	978.248	-943.199	539.365	974.506	-1108.260	648.883	471.695	-1136.817	554.158	489.012	-1438.459	655.020	168.683	-1385.001	601.051	166.428	-1216.209	591.275	36.651	-1100.592	680.594	964.980
-907.830	789.230	978.587	-936.182	540.094	974.653	-1100.412	648.129	470.828	-1129.217	553.150	488.828	-1434.270	654.840	172.636	-1381.424	600.600	169.175	-1216.142	591.205	36.536	-1093.367	681.492	964.860
-900.265	789.547	978.640	-928.948	540.675	974.450	-1092.117	647.227	470.081	-1121.305	552.100	488.534	-1428.985	655.699	175.743	-1377.618	600.092	171.940	-1216.136	591.069	36.396	-1086.013	682.462	964.701
-892.905	790.237	978.849	-921.862	541.418	974.676	-1083.615	646.232	468.729	-1113.203	551.145	488.155	-1424.255	655.351	179.854	-1373.506	599.676	174.710	-1216.070	590.954	36.348	-1078.740	683.371	964.539
-885.682	790.898	978.673	-914.540	542.029	974.657	-1074.725	644.976	467.457	-1104.799	550.038	487.653	-1419.152	655.130	184.218	-1369.239	599.102	177.563	-1215.946	590.822	36.102	-1071.482	684.264	964.302
-878.286	791.496	978.509	-907.333	542.689	974.777	-1065.738	643.767	466.086	-1095.993	548.988	487.118	-1414.802	654.146	189.398	-1364.676	598.315	180.690	-1215.932	590.666	35.950	-1064.272	685.140	964.089
-871.304	792.337	978.777	-900.201	543.438	974.378	-1056.441	642.594	464.358	-1087.005	547.933	486.520	-1409.118	653.612	193.736	-1359.705	597.633	183.592	-1215.818	590.629	35.611	-1057.114	685.972	963.853
-863.955	792.786	978.801	-893.269	544.327	974.430	-1047.021	641.306	462.915	-1077.768	546.739	485.792	-1403.114	653.066	198.358	-1354.365	596.930	186.456	-1215.606	590.484	35.252	-1049.911	686.903	963.651
-856.807	793.361	979.483	-886.407	545.167	974.381	-1036.993	640.002	461.183	-1068.333	545.663	484.818	-1396.465	652.841	202.812	-1348.793	596.239	189.330	-1215.238	590.413	34.743	-1042.856	687.705	963.457
-849.879	794.069	979.253	-877.685	545.803	973.938	-1027.045	638.689	459.391	-1058.525	544.544	483.823	-1389.656	652.501	207.380	-1342.799	595.518	192.220	-1214.937	590.186	34.263	-1035.875	688.320	963.295
-842.998	794.671	979.558	-870.553	546.499	974.488	-1016.545	637.364	457.618	-1048.418	543.358	482.824	-1382.378	652.139	212.187	-1336.671	594.981	195.204	-1214.562	589.842	33.750	-1028.833	689.043	962.923
-836.388	795.403	979.702	-863.216	547.301	973.934	-1005.833	635.929	455.819	-1037.936	542.240	481.745	-1374.727	651.818	217.121	-1330.085	594.473	198.200	-1214.104	589.504	33.273	-1022.081	689.525	962.576
-829.989	796.222	979.777	-856.183	548.094	974.427	-994.940	634.718	453.979	-1027.253	541.116	480.542	-1366.842	651.415	222.147	-1323.126	593.942	201.386	-1213.318	589.057	32.438	-1015.453	689.927	962.344
-823.857	797.058	979.903	-849.184	548.949	974.162	-983.812	633.628	452.006	-1016.180	540.196	479.192	-1358.526	651.072	227.198	-1315.930	593.341	204.973	-1212.383	588.637	31.815	-1008.933	690.356	962.033
-817.604	797.799	980.452	-841.766	549.756	973.280	-972.353	632.706	450.148	-1005.116	539.474	477.762	-1349.871	650.633	232.500	-1308.263	592.786	208.450	-1211.320	588.222	31.149	-1002.537	690.634	961.756
-811.681	798.530	980.666	-835.369	550.636	973.639	-960.585	631.774	448.193	-993.862	538.780	476.361	-1340.677	650.274	237.729	-1300.299	592.165	212.005	-1209.977	587.761	29.899	-996.327	690.933	961.377
-805.860	799.418	981.400	-828.647	551.334	973.683	-948.889	631.033	446.325	-982.441	538.124	475.169	-1331.172	649.881	243.111	-1291.977	591.541	215.645	-1209.604	587.670	28.314	-990.311	690.943	961.140
-800.286	800.536	981.772	-821.952	552.034	973.326	-936.784	630.251	444.841	-970.665	537.602	473.852	-1321.063	649.449	248.537	-1283.274	590.987	219.381	-1208.117	587.099	26.682	-984.340	690.794	960.906
-794.627	801.474	982.739	-815.636	552.926	973.622	-924.987	629.885	443.245	-958.809	537.219	472.449	-1310.483	648.988	254.164	-1273.977	590.444	223.164	-1206.437	586.873	24.656	-978.549	690.644	960.724
-789.185	802.486	983.495	-809.063	553.635	973.855	-913.157	629.883	442.028	-946.687	536.954	471.254	-1299.301	648.720	259.437	-1264.420	589.991	226.964	-1204.660	586.321	22.960	-972.749	690.409	960.566
-783.914	803.497	984.538	-802.947	554.376	973.645	-901.055	629.827	441.168	-934.506	536.718	470.074	-1287.942	648.428	264.851	-1254.513	589.557	230.771	-1202.783	585.987	20.742	-967.053	689.983	960.483
-778.299	804.213	986.087	-796.855	555.133	973.491	-889.273	630.222	440.440	-922.198	536.586	468.911	-1275.870	648.276	269.887	-1244.525	589.298	234.538	-1200.638	585.694	18.481	-961.445	689.608	960.505
-773.144	805.195	987.315	-791.250	555.927	974.127	-877.642	630.858	439.945	-909.888	536.584	467.798	-1263.549	648.186	274.621	-1234.429	589.087	238.103	-1198.399	585.465	15.818	-955.910	689.301	960.647
-767.912	806.111	988.676	-785.988	557.038	974.156	-865.837	631.662	439.800	-897.516	536.646	466.721	-1251.749	648.343	278.657	-1224.316	588.849	241.412	-1195.499	584.937	13.911	-950.331	688.975	960.983
-762.706	806.968	990.074	-780.313	557.572	974.226	-854.669	632.317	439.869	-884.973	536.763	465.755	-1240.626	648.549	281.843	-1213.966	588.840	244.636	-1190.741	583.996	13.762	-944.874	688.749	961.338
-757.583	807.765	991.303	-774.590	558.248	974.812	-843.084	633.305	439.949	-872.614	536.901	465.287	-1230.075	648.979	285.019	-1203.349	588.789	247.884	-1182.914	582.616	16.931	-939.399	688.556	961.695
-752.264	808.560	992.859	-769.051	558.857	975.332	-830.309	633.828	440.325	-860.032	537.216	464.655	-1219.533	649.234	287.995	-1192.826	588.899	251.073	-1172.704	581.074	21.936	-933.960	688.502	962.416
-746.969	809.356	994.148	-763.477	559.695	976.373	-818.815	634.789	440.684	-847.354	537.511	464.351	-1209.202	649.654	290.673	-1181.911	589.081	254.061	-1160.722	579.575	26.391	-928.455	688.699	963.070
-741.616	810.021	995.475	-758.217	560.295	977.165	-807.521	635.993	440.908	-834.942	537.878	464.532	-1198.802	649.887	293.064	-1170.820	589.393	257.047	-1147.460	578.391	29.733	-922.999	688.854	963.950
-736.285	810.699	996.590	-752.792	560.951	977.967	-795.606	636.837	441.561	-822.418	538.227	464.705	-1188.506	650.260	295.008	-1159.648	589.730	259.659	-1133.359	577.027	33.378	-917.563	689.236	964.740
-730.832	811.293	997.801	-747.592	561.537	979.065	-783.832	637.713	442.256	-810.100	538.762	465.189	-1178.181	650.700	296.446	-1148.209	590.023	261.930	-1118.745	575.804	36.637	-912.211	689.760	965.843
-725.457	811.884	998.862	-742.312	562.087	980.218	-772.028	638.708	443.190	-797.966	539.272	466.050	-1167.652	651.010	297.343	-1136.401	590.244	263.706	-1103.255	574.680	39.043	-906.744	690.568	966.698
-720.080	812.487	999.628	-737.127	562.677	981.466	-760.196	639.477	444.226	-786.004	539.751	466.953	-1156.949	651.312	297.720	-1124.478	590.520	264.940	-1087.413	573.478	41.382	-901.419	691.409	967.827
-714.511	813.093	1000.710	-731.911	563.267	982.782	-748.390	640.336	445.624	-773.923	540.352	468.044	-1146.107	651.425	297.983	-1112.323	590.676	265.865	-1071.383	572.695	43.236	-896.027	692.311	968.739
-708.988	813.635	1001.902	-726.768	563.852	984.192	-736.835	641.156	446.944	-762.237	540.911	469.396	-1134.690	651.512	297.436	-1099.946	590.787	266.469	-1054.903	571.822	44.853	-890.714	693.259	969.939
-703.599	814.118	1002.440	-721.630	564.369	985.255	-725.038	641.934	448.586	-750.519	541.375	470.732	-1123.017	651.567	296.555	-1087.245	590.746	266.300	-1038.248	571.115	45.972	-885.399	694.200	971.013
-698.060	814.554	1002.994	-716.579	564.905	987.209	-713.527	642.653	450.331	-738.902	542.065	472.282	-1111.481	651.452	295.387	-1074.572	590.655	266.099	-1021.229	570.398	46.816	-879.957	695.223	972.121
-692.772	815.209	1003.736	-711.437	565.370	988.380	-702.172	643.376	452.100	-727.443	542.581	473.947	-1099.473	651.316	293.778	-1061.717	590.565	265.293	-1004.063	569.589	47.474	-874.727	696.123	973.291
-687.518	815.805	1004.248	-706.310	565.823	990.006	-690.566	644.087	454.005	-715.973	543.084	475.614	-1087.480	651.179	291.770	-1048.766	590.504	264.006	-986.611	568.855	47.824	-869.177	697.330	974.215
-681.996	816.217	1004.988	-701.276	566.328	991.563	-679.122	644.591	456.061	-704.768	543.746	477.528	-1075.265	651.028	289.311	-1035.650	590.340	262.637	-968.800	568.208	47.979	-864.114	698.148	975.436
-676.660	816.564	1005.698	-696.149	566.766	993.156	-667.851	645.260	458.122	-693.665	544.275	479.549	-1062.803	650.845	286.597	-1022.369	590.246	260.757	-950.731	567.531	47.946	-858.725	699.063	976.339
-671.498	817.146	1006.094	-691.098	567.227	995.147	-656.604	645.734	460.254	-682.683	544.769	481.680	-1050.264	650.538	283.554	-1008.921	589.981	258.545	-932.176	566.828	47.887	-853.476	699.800	977.595
-666.003	817.365	1006.662	-685.818	567.552	997.023	-645.296	646.272	462.472	-671.805	545.384	483.637	-1037.471	650.312	279.915	-995.418	589.875	256.157	-913.601	566.521	47.315	-848.215	700.406	978.602
-660.278	817.374	1007.511	-680.724	567.946	998.528	-634.313	646.850	464.708	-661.217	546.009	485.808	-1024.635	649.924	276.099	-981.562	589.638	253.504	-894.646	566.005	46.869	-842.897	700.968	979.807
-655.008	817.634	1008.272	-675.482	568.294	1000.060	-623.539	647.420	467.055	-650.574	546.507	487.961	-1011.557	649.641	272.063	-967.614	589.438	250.391	-875.399	565.665	46.431	-837.570	701.382	980.744
-649.616	817.923	1008.745	-670.334	568.720	1001.387	-612.782	647.878	469.349	-640.112	547.118	490.007	-998.559	649.487	267.713	-953.538	589.245	247.134	-855.916	565.327	45.794	-832.333	701.638	982.014
-644.641	818.417	1008.828	-665.209	569.104	1002.537	-602.207	648.357	471.898	-629.924	547.788	492.181	-985.040	649.295	262.830	-939.262	589.117	243.690	-836.155	565.096	45.194	-826.917	702.029	982.952
-639.359	818.792	1009.436	-659.796	569.697	1004.298	-591.661	649.046	474.264	-619.626	548.478	494.268	-971.545	648.916	258.068	-924.812	588.997	239.979	-816.159	564.731	44.677	-821.694	702.159	984.192
-634.331	819.243	1009.407	-654.504	570.158	1005.130	-581.431	649.722	476.593	-609.639	549.080	496.494	-957.773	648.676	252.740	-910.191	588.856	236.078	-795.933	564.499	44.191	-816.535	702.265	985.218
-629.180	819.636	1009.674	-649.097	570.854	1006.634	-571.037	650.410	478.999	-599.701	549.835	498.449	-943.933	648.458	247.531	-895.396	588.759	232.008	-775.551	564.246	43.775	-811.315	702.221	986.379
-623.997	819.948	1010.121	-643.719	571.502	1007.357	-561.093	651.045	481.457	-589.910	550.505	500.457	-929.810	648.296	241.827	-880.517	588.730	227.805	-755.023	563.925	43.618	-806.179	702.274	987.325
-618.931	820.325	1010.359	-638.230	572.307	1008.756	-551.190	651.803	483.760	-580.022	551.139	502.268	-915.297	648.049	236.035	-865.460	588.637	223.613	-734.410	563.637	43.376	-801.151	702.026	988.535
-613.786	820.708	1010.782	-632.785	573.067	1009.683	-541.620	652.504	486.096	-570.200	551.767	504.081	-900.791	647.953	230.176	-850.060	588.582	219.105	-713.760	563.374	43.271	-796.027	701.952	989.382
-608.987	821.422	1010.428	-627.244	573.849	1010.287	-531.950	653.225	488.243	-560.569	552.522	505.887	-885.975	647.836	224.249	-834.676	588.589	214.706	-692.934	563.079	43.306	-790.936	701.734	990.307
-604.028	822.029	1010.656	-621.681	574.638	1011.149	-522.615	653.848	490.500	-550.998	553.197	507.634	-871.006	647.735	218.179	-819.001	588.631	209.948	-672.249	562.719	43.360	-785.821	701.571	991.049
-599.222	822.719	1010.507	-616.141	575.556	1011.935	-513.377	654.656	492.423	-541.672	553.837	509.318	-855.394	648.135	211.859	-803.261	588.699	205.419	-650.974	561.965	43.895	-780.483	701.419	991.765
-594.521	823.549	1010.224	-610.504	576.306	1011.950	-504.116	655.494	494.570	-532.142	554.582	510.876	-839.714	648.391	205.592	-787.257	588.799	200.674	-630.422	561.631	44.216	-775.126	701.403	992.470
-589.674	824.284	1010.137	-605.163	577.311	1012.294	-495.015	656.369	496.530	-522.789	555.321	512.354	-822.752	649.119	198.563	-771.046	589.093	195.986	-609.917	561.169	44.551	-769.939	701.270	992.989
-584.957	825.071	1009.862	-599.454	578.092	1013.091	-485.992	657.074	498.454	-513.794	556.107	513.863	-806.797	649.158	192.566	-754.857	589.243	191.478	-589.375	560.667	44.800	-764.774	701.165	993.359
-580.430	825.953	1009.467	-593.858	578.996	1013.371	-476.909	657.747	500.287	-504.577	556.712	515.338	-789.780	649.856	185.841	-738.289	589.413	186.668	-568.798	560.199	45.360	-759.613	701.045	993.526
-575.560	826.765	1009.309	-588.224	579.904	1014.285	-468.241	658.529	501.959	-495.510	557.328	516.705	-773.126	649.499	179.832	-721.785	589.642	182.175	-548.384	559.625	46.183	-754.459	700.861	993.844
-570.865	827.673	1008.917	-582.643	580.827	1014.619	-460.402	658.914	503.192	-486.645	558.230	518.006	-756.103	649.818	173.627	-704.971	589.898	177.692	-527.901	559.088	46.985	-749.392	700.673	993.834
-566.219	828.536	1008.372	-577.092	581.637	1014.438	-451.568	659.691	504.966	-477.856	559.047	519.230	-738.994	650.063	167.824	-688.139	590.041	173.276	-507.344	558.559	48.021	-744.077	700.673	993.701
-561.711	829.439	1007.829	-571.612	582.477	1014.670	-443.024	660.316	506.495	-469.189	559.707	520.438	-721.845	650.203	161.928	-671.178	590.253	169.086	-487.013	558.137	49.120	-738.902	700.630	993.545
-557.037	830.224	1007.250	-565.998	583.289	1015.172	-434.456	660.916	508.144	-460.557	560.607	521.500	-704.546	650.413	156.233	-654.131	590.449	164.950	-466.506	557.652	50.391	-733.716	700.601	993.187
-552.300	831.137	1006.658	-560.572	584.155	1015.316	-425.890	661.489	509.440	-452.174	561.393	522.599	-687.021	650.515	150.802	-636.950	590.537	160.912	-446.329	557.268	51.991	-728.800	700.444	992.998
-547.463	831.750	1006.207	-555.047	584.762	1014.836	-417.844	662.210	510.529	-443.857	562.234	523.523	-669.475	650.670	145.360	-619.541	590.566	157.099	-426.073	556.869	53.567	-723.781	700.332	992.518
-543.037	832.707	1005.401	-549.747	585.395	1014.403	-409.655	662.856	512.023	-435.397	562.939	524.296	-652.462	649.809	140.801	-602.208	590.739	153.324	-405.900	556.668	55.401	-718.477	700.309	991.936
-537.918	832.962	1005.048	-544.294	586.028	1014.784	-401.398	663.507	513.178	-427.229	563.696	525.174	-634.686	649.681	135.984	-585.081	590.222	149.834	-385.820	556.484	57.418	-713.379	700.234	991.185
-532.768	833.341	1004.895	-538.961	586.502	1013.951	-393.476	663.993	514.353	-419.014	564.392	525.907	-616.740	649.649	131.190	-567.693	590.197	146.574	-365.826	556.577	59.441	-708.168	700.142	990.486
-528.119	834.077	1003.990	-533.553	586.858	1013.956	-385.603	664.630	515.444	-410.900	565.217	526.537	-598.767	649.590	126.501	-550.059	590.207	143.391	-345.828	556.724	61.786	-703.040	700.106	989.700
-523.111	834.482	1003.519	-528.123	587.241	1013.888	-377.823	665.338	516.361	-402.992	566.085	526.896	-580.869	649.398	122.370	-532.350	590.139	140.448	-326.124	557.063	64.207	-697.823	700.149	988.736
-518.272	835.072	1002.741	-522.811	587.579	1013.508	-370.361	666.071	517.332	-395.103	566.525	527.636	-562.824	649.172	118.388	-514.608	590.150	137.584	-306.334	557.521	66.697	-692.658	700.161	987.942
-513.405	835.533	1002.122	-517.569	587.810	1012.662	-363.050	666.757	518.019	-387.427	567.348	528.151	-544.691	649.067	114.379	-497.069	589.940	135.150	-286.721	558.060	69.431	-687.406	700.171	986.916
-508.136	835.651	1001.482	-512.153	588.014	1012.497	-355.438	667.460	518.867	-379.761	568.153	528.599	-526.564	648.832	110.961	-478.922	590.366	132.542	-267.332	558.687	72.212	-682.197	700.300	985.899
-503.014	835.939	1000.883	-506.811	588.007	1011.542	-348.136	668.172	519.671	-372.284	568.955	528.801	-508.404	648.540	107.604	-460.982	590.395	130.408	-247.984	559.378	75.085	-676.883	700.359	984.945
-497.689	836.029	1000.499	-501.544	588.293	1011.188	-341.073	668.856	520.148	-364.756	569.653	529.151	-490.599	648.157	104.739	-443.038	590.349	128.180	-228.828	560.186	78.068	-671.611	700.364	983.928
-492.652	836.433	999.645	-496.319	588.319	1010.166	-334.220	669.605	520.561	-357.343	570.382	529.320	-471.742	648.843	101.293	-425.159	590.290	126.074	-209.858	560.997	81.468	-666.324	700.371	982.869
-487.469	836.655	998.748	-490.765	588.167	1010.095	-327.520	670.264	520.785	-350.036	571.125	529.497	-453.630	648.877	98.685	-407.841	590.031	124.572	-191.147	562.020	85.021	-660.869	700.569	981.823
-481.805	836.471	998.499	-485.441	588.292	1009.245	-320.373	670.867	521.166	-342.986	571.843	529.612	-435.259	649.506	95.847	-390.525	590.047	123.382	-172.576	563.025	88.924	-655.509	700.709	980.860
-476.725	836.804	997.402	-480.063	588.333	1008.294	-313.412	671.508	521.559	-335.811	572.656	529.554	-418.329	648.482	93.778	-373.424	590.222	122.385	-154.240	564.190	93.019	-650.067	700.901	979.821
-471.365	837.013	996.606	-474.525	588.085	1007.916	-306.795	672.114	521.590	-328.842	573.330	529.541	-400.721	648.409	91.832	-355.578	590.755	120.804	-136.191	565.532	97.672	-644.402	701.141	978.631
-466.134	837.322	995.431	-469.131	588.073	1006.705	-299.939	672.784	521.671	-321.802	574.180	529.327	-383.227	648.465	89.983	-339.174	590.894	120.549	-118.468	566.877	102.544	-638.974	701.327	977.768
-460.383	837.080	995.069	-463.534	588.142	1006.169	-293.362	673.333	521.583	-314.874	574.984	529.103	-365.684	648.567	88.236	-321.209	591.690	118.998	-101.088	568.404	107.601	-633.256	701.496	976.723
-455.017	837.372	993.962	-457.845	588.081	1004.954	-286.688	673.886	521.714	-307.977	575.785	528.728	-348.638	648.578	86.714	-305.544	591.554	119.721	-83.953	569.980	113.044	-627.830	701.591	975.878
-449.633	837.604	992.887	-452.092	588.197	1004.572	-280.188	674.525	521.877	-301.120	576.428	528.417	-331.418	648.765	85.268	-289.143	591.835	119.430	-67.200	571.572	118.733	-622.161	701.669	974.797
-444.010	837.734	992.002	-446.382	588.220	1003.078	-273.828	675.131	521.699	-294.352	577.213	528.011	-314.700	648.805	84.133	-274.172	590.907	119.754	-50.719	573.255	124.523	-616.351	701.913	973.906
-438.382	837.744	991.243	-440.422	588.396	1002.806	-267.332	675.730	521.680	-287.791	577.987	527.494	-297.886	649.075	83.066	-258.017	591.421	119.845	-34.754	575.069	130.443	-610.605	701.974	973.066
-432.938	838.170	990.102	-434.742	588.651	1001.613	-261.263	676.252	521.320	-281.406	578.801	526.921	-281.229	649.522	82.209	-241.975	592.044	120.074	-19.025	576.850	136.425	-604.966	702.036	972.140
-427.556	838.504	988.887	-428.676	588.738	1000.805	-254.806	676.736	521.247	-274.952	579.496	526.328	-264.831	649.944	81.565	-226.188	592.766	120.496	-3.667	578.726	142.046	-599.298	702.025	971.457
-421.957	838.669	988.023	-422.683	588.859	999.805	-248.983	677.256	520.708	-268.623	580.234	525.683	-248.816	650.299	81.388	-209.615	594.079	120.574	11.423	580.551	148.151	-593.653	702.013	970.680
-416.461	838.769	987.042	-416.756	589.175	998.847	-243.086	677.848	520.200	-262.457	581.051	524.834	-232.785	650.810	81.159	-194.491	594.711	121.237	25.966	582.321	153.863	-587.804	701.998	969.914
-411.011	839.186	985.939	-410.729	589.424	997.631	-237.305	678.330	519.593	-256.284	581.735	524.045	-217.286	651.189	81.287	-179.604	595.369	122.044	40.339	584.310	159.628	-581.941	701.978	969.130
-405.622	839.562	984.761	-404.484	589.661	996.943	-231.369	678.835	519.116	-250.370	582.420	523.163	-201.819	651.702	81.374	-164.822	596.019	123.107	54.305	585.961	165.396	-576.087	701.849	968.360
-400.104	839.865	983.814	-398.422	590.015	995.775	-225.659	679.375	518.397	-244.377	582.998	522.296	-186.296	652.807	81.450	-150.408	596.584	124.213	67.822	587.617	170.924	-570.270	701.688	967.775
-394.578	840.027	983.017	-392.276	590.255	994.551	-220.065	680.090	517.525	-238.543	583.745	521.328	-171.767	652.958	82.218	-136.246	597.261	125.560	81.082	589.304	176.417	-564.248	701.674	967.078
-389.192	840.513	981.901	-385.994	590.493	994.144	-214.362	680.763	516.735	-232.697	584.544	520.316	-157.655	653.232	83.129	-122.452	597.931	127.049	93.948	590.989	181.746	-558.370	701.456	966.430
-383.849	840.987	980.844	-379.855	590.913	992.826	-208.393	681.370	516.240	-226.915	585.201	519.415	-143.491	653.595	84.097	-108.915	598.728	128.394	106.534	592.648	186.832	-552.541	701.312	965.760
-378.313	841.282	979.922	-373.593	591.324	992.157	-202.880	682.097	515.339	-221.121	586.001	518.482	-129.932	654.338	85.315	-95.793	599.587	129.814	118.793	594.067	191.866	-546.764	701.082	965.230
-372.802	841.547	979.131	-367.160	591.594	991.119	-197.158	682.729	514.651	-215.293	586.713	517.590	-116.405	655.254	86.363	-83.067	600.528	131.422	130.702	595.418	196.564	-540.641	700.933	964.482
-367.432	842.048	978.171	-360.913	592.124	990.561	-191.523	683.382	513.973	-209.402	587.411	516.865	-103.650	656.046	87.721	-70.551	601.383	132.939	142.217	596.571	201.195	-534.556	700.803	963.777
-361.794	842.301	977.345	-354.448	592.457	989.834	-185.901	683.958	513.291	-203.392	588.085	516.050	-90.801	657.134	88.700	-58.413	602.407	134.304	153.395	597.211	205.794	-528.401	700.498	963.073
-356.366	842.724	976.284	-348.090	592.801	989.146	-179.894	684.433	512.960	-197.500	588.708	515.321	-78.707	658.205	90.032	-46.893	603.585	135.680	163.974	597.990	210.260	-522.334	700.148	962.522
-350.702	842.938	975.696	-341.732	593.245	988.319	-174.282	684.983	512.307	-191.412	589.379	514.623	-67.023	659.426	91.274	-35.668	604.590	136.986	174.233	598.700	214.328	-516.330	699.807	961.887
-345.157	843.236	974.883	-335.203	593.703	987.754	-168.257	685.609	511.871	-185.436	589.990	513.898	-55.635	660.805	92.263	-24.829	605.811	138.105	183.884	599.760	217.818	-510.222	699.432	961.428
-339.423	843.455	974.195	-328.676	594.007	987.015	-162.627	686.164	511.208	-179.297	590.685	513.171	-43.651	663.464	92.776	-14.743	607.000	139.637	193.176	600.441	221.340	-504.103	699.092	960.606
-333.657	844.010	973.469	-322.034	594.286	986.640	-156.580	686.663	510.907	-173.115	591.207	512.627	-33.019	664.970	93.391	-4.997	608.339	140.511	202.265	600.686	224.974	-497.941	698.803	960.194
-328.901	844.964	972.552	-315.522	594.778	985.941	-150.615	687.174	510.488	-166.897	591.761	511.974	-23.549	666.400	94.513	4.741	609.749	141.487	210.906	601.643	227.584	-491.800	698.452	959.384
-322.862	844.989	972.100	-309.100	595.096	985.319	-144.533	687.788	510.352	-160.559	592.415	511.517	-13.982	667.714	95.196	13.980	610.934	142.108	219.183	602.281	230.178	-485.525	697.984	958.964
-317.570	845.690	971.007	-302.350	595.430	984.845	-138.580	688.488	510.101	-154.096	592.853	511.119	-4.974	668.983	95.779	22.464	612.039	142.685	227.192	603.030	232.162	-479.453	697.449	958.431
-312.089	846.258	970.091	-295.723	595.694	984.490	-132.171	689.079	510.126	-147.669	593.417	510.775	3.558	670.217	96.094	30.639	613.121	143.237	234.907	603.843	233.746	-473.250	696.899	958.003
-306.157	846.402	969.488	-289.139	596.063	983.828	-125.857	689.648	509.987	-141.103	593.933	510.447	11.744	671.416	96.189	38.419	614.178	143.655	242.337	604.791	234.951	-466.833	696.487	957.399
-300.315	846.392	969.160	-282.460	596.220	983.425	-119.361	690.195	510.152	-134.370	594.545	510.357	19.131	672.533	96.456	45.854	615.237	143.685	249.534	605.765	235.603	-460.694	695.938	956.909
-294.691	846.854	968.183	-275.760	596.492	983.014	-112.899	690.853	510.083	-127.660	595.080	510.161	26.419	673.792	96.206	52.880	616.323	143.683	256.357	606.824	235.835	-454.372	695.496	956.485
-289.180	847.345	967.598	-269.134	596.768	982.343	-106.346	691.289	509.995	-120.824	595.683	510.149	32.966	674.782	95.923	59.613	617.310	143.395	263.018	607.952	235.651	-448.201	694.894	956.336
-283.147	847.454	967.035	-262.356	596.807	981.680	-99.332	691.708	510.358	-114.080	596.262	510.078	39.251	675.818	95.362	65.774	618.355	143.016	269.372	609.145	235.061	-441.716	694.470	955.847
-277.140	847.460	966.624	-255.691	597.223	981.471	-92.633	692.190	510.375	-107.179	596.808	510.260	44.790	676.730	94.933	71.655	619.369	142.274	275.323	610.325	234.054	-435.330	693.957	955.587
-271.074	847.518	966.229	-248.935	597.366	980.726	-85.797	692.770	510.724	-100.262	597.412	510.267	50.300	677.731	93.946	77.374	620.356	141.392	281.028	611.493	232.687	-428.742	693.485	955.184
-265.263	847.790	965.703	-241.985	597.401	981.041	-78.982	693.198	510.898	-93.326	598.042	510.465	55.087	678.588	93.229	82.316	621.258	140.604	286.455	612.723	230.917	-422.239	692.872	955.189
-259.018	847.706	965.592	-235.210	597.736	980.872	-72.206	693.695	511.135	-86.336	598.643	510.559	59.660	679.517	92.165	87.191	622.255	139.308	291.576	613.954	228.966	-415.638	692.374	955.051
-253.041	847.909	965.172	-228.322	597.844	980.443	-65.264	694.206	511.535	-79.439	599.231	510.737	63.682	680.387	91.072	91.811	623.266	138.026	296.529	615.288	226.647	-408.970	691.922	954.766
-247.100	848.097	964.894	-221.345	597.942	980.337	-58.694	694.817	511.383	-72.473	599.872	510.854	67.480	681.321	89.817	95.645	624.248	136.749	301.129	616.680	224.142	-402.678	691.318	955.082
-241.061	848.231	964.639	-214.428	598.187	980.116	-51.904	695.394	511.500	-65.457	600.438	510.914	70.896	682.144	88.452	99.620	625.146	135.334	305.676	617.751	221.668	-395.850	690.920	955.038
-234.823	848.213	964.633	-207.348	598.251	979.966	-45.497	695.989	511.214	-58.661	601.077	510.886	74.104	683.017	86.929	103.249	626.075	133.768	309.821	619.265	218.601	-389.159	690.470	954.985
-228.646	848.279	964.475	-200.294	598.389	980.146	-38.825	696.560	511.159	-51.891	601.684	510.633	77.000	683.915	85.271	106.676	627.037	131.974	313.633	620.781	215.418	-382.322	690.066	955.171
-222.646	848.601	964.158	-193.225	598.541	980.143	-32.547	697.247	510.754	-45.296	602.170	510.524	79.393	684.662	83.790	109.647	627.992	130.154	317.444	622.254	212.108	-375.383	689.615	955.251
-216.256	848.542	964.452	-185.951	598.586	980.381	-26.158	697.902	510.459	-38.580	602.704	510.154	81.645	685.394	82.073	112.503	628.872	128.302	320.656	623.944	208.577	-368.471	689.211	955.268
-209.673	848.435	964.456	-178.705	598.859	980.391	-19.927	698.595	509.912	-32.141	603.257	509.764	83.552	686.082	80.301	115.037	629.761	126.366	323.968	625.723	204.724	-361.551	688.662	955.540
-203.248	848.447	964.581	-171.386	599.027	980.433	-13.609	699.130	509.542	-25.711	603.827	509.281	85.134	686.805	78.507	117.305	630.562	124.483	326.686	627.315	201.226	-354.344	688.353	955.584
-196.944	848.672	964.458	-164.014	599.164	980.910	-7.652	699.939	508.805	-19.450	604.396	508.613	87.149	687.426	76.195	119.234	631.478	122.390	329.141	629.109	197.413	-347.380	687.850	955.922
-190.098	848.590	964.878	-156.597	599.408	981.097	-1.743	700.640	508.067	-13.226	604.971	508.097	88.228	688.101	74.310	121.136	632.318	120.115	331.768	631.083	193.227	-340.178	687.492	956.005
-183.541	848.700	964.989	-149.125	599.612	981.203	4.202	701.414	507.384	-7.147	605.689	507.166	89.192	688.838	72.117	122.660	633.229	118.052	333.847	633.003	189.292	-333.081	687.063	955.996
-177.129	849.031	964.937	-141.428	599.769	981.537	9.686	702.243	506.296	-1.071	606.289	506.486	89.879	689.483	69.796	123.856	634.133	115.674	335.780	634.988	185.071	-325.780	686.670	956.221
-170.394	849.078	965.054	-133.776	599.998	981.755	15.172	703.007	505.177	4.989	606.996	505.581	90.279	689.917	67.858	125.152	634.980	113.322	337.350	637.095	180.816	-318.331	686.230	956.307
-163.386	848.975	965.361	-126.162	600.203	981.879	20.586	703.758	504.209	10.904	607.686	504.604	90.630	690.545	65.338	124.875	635.337	111.516	338.821	639.156	176.493	-310.689	685.817	956.319
-156.504	849.043	965.848	-118.313	600.277	981.863	25.695	704.552	502.870	16.602	608.398	503.660	90.947	690.830	63.985	125.824	636.203	109.368	340.102	641.251	172.610	-303.101	685.391	956.225
-149.556	849.105	965.509	-110.572	600.576	981.891	30.782	705.333	501.471	22.258	609.225	502.406	91.933	691.220	62.105	126.879	636.962	107.336	342.232	643.150	168.948	-295.579	684.864	956.364
-142.297	849.101	965.932	-102.612	600.640	982.058	35.855	706.060	500.203	27.824	610.010	501.018	93.147	691.828	60.513	128.460	637.844	105.366	345.090	644.978	165.699	-287.910	684.390	956.454
-135.156	849.054	966.107	-94.690	600.801	982.158	40.413	706.776	498.598	33.153	610.742	499.790	94.834	692.687	59.802	130.755	638.906	103.875	347.527	647.159	162.352	-280.266	683.886	956.304
-127.894	849.111	966.018	-86.840	601.041	981.945	44.753	707.455	496.981	38.278	611.408	498.421	97.072	693.775	59.427	133.461	639.868	103.098	349.833	648.841	158.998	-272.605	683.396	956.229
-120.622	849.100	966.543	-79.012	601.263	981.981	49.143	708.012	495.438	43.535	611.697	497.165	99.529	694.867	59.759	137.069	640.922	102.319	352.275	650.524	155.308	-264.951	682.876	956.332
-113.505	849.151	966.454	-71.284	601.467	981.905	53.015	708.695	493.676	47.956	611.929	495.946	101.626	696.108	61.121	141.236	641.766	102.036	355.546	652.185	150.445	-257.386	682.350	956.432
-106.035	849.186	966.671	-63.595	601.708	981.838	56.632	709.387	492.013	52.189	612.008	494.663	104.278	696.907	62.579	145.337	642.451	101.864	359.901	654.054	144.573	-249.913	681.761	956.473
-98.748	849.121	966.382	-56.109	601.884	981.895	60.440	710.099	490.939	56.295	611.942	493.663	106.730	697.492	64.098	150.585	643.177	100.942	365.669	655.149	138.515	-242.511	681.236	956.521
-91.627	849.327	966.524	-48.736	602.084	981.832	63.891	710.895	489.919	60.602	611.732	493.070	108.938	697.717	65.441	152.694	642.891	102.050	371.118	656.170	132.609	-235.311	680.678	956.646
-83.941	848.869	966.824	-41.507	602.152	982.030	67.687	711.518	489.448	65.186	611.490	493.048	110.751	697.521	66.455	155.891	642.818	101.395	374.588	657.100	127.288	-227.937	680.309	956.764
-76.555	848.674	966.458	-34.487	602.168	982.358	71.463	712.074	489.673	70.315	611.267	493.256	112.261	697.266	67.310	158.820	643.098	100.945	377.038	658.041	122.530	-220.882	680.068	956.785
-68.442	847.953	967.326	-27.527	602.144	982.462	75.593	712.261	490.226	75.967	611.180	493.816	113.385	696.944	68.197	160.853	643.050	100.635	379.539	658.681	118.038	-214.048	679.833	956.998
-61.171	847.757	967.010	-20.725	602.006	983.243	80.198	712.144	491.293	82.329	611.071	494.382	114.539	696.805	68.851	162.927	643.271	100.017	382.058	658.759	113.648	-207.181	679.860	957.216
-54.083	847.729	967.184	-14.272	601.950	983.861	85.428	711.649	492.478	88.873	610.936	495.088	115.659	696.513	69.740	164.850	643.377	99.674	384.223	658.302	109.587	-200.450	679.981	957.318
-47.012	847.355	966.897	-7.891	601.603	984.629	91.252	710.824	493.826	95.431	610.650	495.757	116.786	696.375	70.528	166.409	643.189	99.604	386.047	657.434	105.790	-193.956	680.245	957.595
-40.024	847.201	966.630	-1.606	601.250	985.679	97.240	710.021	494.783	101.633	610.270	496.534	117.912	696.058	71.389	167.217	642.103	99.634	387.673	656.318	102.104	-187.592	680.563	957.977
-32.739	846.612	967.273	4.480	600.601	986.754	103.561	708.942	495.800	107.589	609.680	497.260	118.940	695.844	72.167	168.705	641.555	99.506	389.069	655.098	98.738	-181.296	681.072	958.324
-25.820	846.165	967.134	10.382	599.821	987.927	109.786	707.799	496.616	113.168	609.022	498.201	119.856	695.466	72.899	169.823	640.842	99.477	390.396	653.781	95.693	-175.062	681.730	958.677
-18.739	845.606	967.814	16.198	599.059	989.108	115.964	706.557	497.359	118.666	608.233	499.111	120.571	694.935	73.657	171.005	640.306	99.272	391.433	652.668	92.733	-168.887	682.507	959.161
-11.871	845.073	967.954	22.011	598.100	990.495	122.117	705.330	498.275	123.936	607.455	499.971	121.337	694.409	74.387	171.917	639.715	99.156	392.396	651.584	90.029	-162.736	683.350	959.639
-4.926	844.236	968.057	27.700	597.105	991.753	128.144	704.059	499.177	129.039	606.572	500.806	122.107	693.972	75.063	173.068	639.179	98.987	393.468	650.730	87.495	-156.851	684.137	960.229
1.726	843.521	968.558	33.379	596.123	993.495	133.804	702.696	499.691	133.828	605.591	501.337	122.841	693.500	75.766	173.859	638.621	98.985	394.340	650.111	84.936	-152.539	684.474	961.100
8.385	842.519	969.334	38.997	595.180	994.837	139.226	701.496	500.304	138.373	604.744	501.838	123.591	693.090	76.330	174.857	638.344	98.860	395.354	649.669	82.638	-146.178	685.388	961.695
14.869	841.756	969.441	44.775	594.175	996.146	144.647	700.256	501.115	142.640	603.792	502.374	124.200	692.696	76.948	175.833	638.398	98.537	396.198	649.487	80.138	-139.763	686.105	962.306
21.398	841.009	970.128	50.503	593.304	997.407	149.713	699.232	501.599	146.605	603.129	502.546	124.905	692.430	77.529	177.060	638.295	98.134	397.163	649.361	77.935	-133.564	686.697	963.190
27.838	840.438	971.033	56.384	592.387	998.878	154.326	698.299	501.996	150.615	602.385	502.649	125.529	692.211	78.011	177.939	638.130	98.011	397.896	649.380	75.724	-127.432	687.283	963.790
34.090	839.918	971.702	62.097	591.746	999.940	158.925	697.558	502.453	153.947	602.211	502.482	126.037	692.064	78.495	178.742	638.053	97.848	398.722	649.337	73.825	-121.496	687.480	964.639
40.510	839.179	972.624	68.045	591.035	1001.095	163.026	697.014	502.611	157.363	601.772	502.374	126.516	692.063	78.900	179.529	638.131	97.828	399.372	649.465	71.870	-115.330	687.721	965.449
46.715	838.704	972.990	73.930	590.537	1002.289	166.833	696.567	502.612	160.744	601.341	502.244	126.807	692.193	79.175	180.054	638.317	97.807	400.156	649.625	70.607	-109.348	687.610	966.466
52.927	838.230	974.050	79.803	590.061	1003.021	170.013	696.475	502.241	163.926	601.236	501.982	127.048	692.450	79.329	180.477	638.629	97.861	400.384	649.753	69.962	-103.236	687.436	967.450
59.046	837.867	975.144	85.751	589.572	1004.033	173.286	696.427	502.226	166.854	601.137	501.782	127.247	692.697	79.366	180.630	638.912	97.955	400.374	649.941	69.490	-97.195	687.057	968.422
65.259	837.377	976.158	91.636	589.187	1004.732	176.185	696.403	502.219	169.744	601.021	501.683	127.320	692.796	79.449	180.951	639.171	98.125	400.618	650.259	68.879	-91.065	686.515	969.351
71.469	837.071	977.833	97.594	588.566	1005.641	178.746	696.423	502.198	172.609	600.859	501.693	127.459	692.989	79.478	181.129	639.393	98.162	400.966	650.620	68.169	-85.113	685.988	970.146
77.533	836.516	978.747	103.383	588.118	1006.359	181.088	696.504	502.226	175.254	600.933	501.582	127.567	693.147	79.506	181.301	639.581	98.251	401.226	650.909	67.495	-79.092	685.323	971.011
83.699	836.208	980.211	109.285	587.594	1007.132	183.365	696.626	502.297	177.603	601.037	501.579	127.599	693.305	79.572	181.518	639.848	98.229	401.293	651.130	66.995	-73.074	684.634	971.986
89.757	835.763	981.580	115.122	587.103	1008.031	185.447	696.805	502.336	179.807	601.093	501.657	127.603	693.486	79.632	181.746	640.095	98.326	401.336	651.216	66.782	-67.167	684.069	972.766
95.922	835.228	983.168	120.842	586.528	1008.789	188.025	697.206	502.770	181.954	601.096	501.841	127.605	693.620	79.704	181.847	640.311	98.355	401.345	651.272	66.622	-61.230	683.546	973.634
101.933	834.958	984.449	126.616	585.922	1009.698	190.209	697.132	503.108	183.929	601.063	502.081	126.933	692.824	80.011	181.822	640.407	98.411	401.365	651.372	66.536	-55.321	682.987	974.381
108.047	834.346	986.022	132.397	585.355	1010.600	192.113	697.034	503.307	185.730	600.947	502.353	126.922	692.877	80.081	181.810	640.500	98.469	401.405	651.500	66.427	-49.459	682.473	975.312
114.172	833.908	987.669	138.097	584.703	1011.620	194.047	696.892	503.414	187.678	600.778	502.700	126.893	692.954	80.131	181.863	640.571	98.562	401.379	651.594	66.321	-43.639	681.999	976.163
120.177	833.521	989.186	143.756	584.251	1012.522	195.959	696.768	503.623	189.514	600.620	502.939	126.981	693.136	80.099	181.841	640.560	98.652	401.382	651.724	66.267	-37.692	681.768	977.050
126.337	833.074	990.872	149.553	583.630	1013.648	197.884	696.533	503.957	191.254	600.420	503.140	126.962	693.177	80.152	181.677	640.502	98.822	401.379	651.821	66.222	-31.954	681.502	978.112
132.524	832.523	992.567	155.216	583.154	1014.646	199.605	696.397	504.167	192.930	600.282	503.335	126.945	693.248	80.261	181.598	640.450	98.850	401.373	651.902	66.128	-26.122	681.533	978.994
138.399	832.194	994.055	160.864	582.743	1015.562	201.352	696.276	504.269	194.650	600.122	503.477	127.235	693.535	80.427	181.711	640.493	98.975	401.356	651.993	66.004	-20.224	681.583	980.113
144.505	831.772	995.808	166.646	582.187	1016.532	202.956	696.224	504.269	196.592	599.872	503.638	126.884	693.121	80.620	181.669	640.496	98.951	401.369	652.026	65.918	-14.527	681.650	981.275
150.492	831.256	997.455	172.357	581.784	1017.317	204.590	696.067	504.323	198.395	599.608	503.784	126.835	693.015	80.766	181.680	640.374	98.973	401.412	652.040	65.792	-8.557	681.882	982.532
156.540	830.813	998.744	178.095	581.254	1018.097	206.321	695.900	504.334	200.253	599.394	503.833	126.831	692.897	80.851	181.721	640.262	99.069	401.443	652.077	65.653	-2.757	681.910	983.970
162.547	830.500	1000.290	183.741	580.901	1018.753	208.049	695.724	504.327	202.072	599.147	503.832	126.833	692.735	80.986	181.874	640.148	99.132	401.466	652.101	65.432	3.107	682.188	985.123
168.739	829.823	1001.669	189.484	580.556	1019.443	209.741	695.618	504.092	204.070	598.900	503.888	126.830	692.575	81.093	181.842	639.945	99.143	401.602	652.120	65.120	9.005	682.231	986.514
174.793	829.396	1003.151	195.200	580.134	1020.061	211.579	695.430	504.037	206.067	598.611	503.962	126.918	692.401	81.211	181.923	639.794	99.153	401.742	652.186	64.789	14.862	682.433	987.869
180.948	828.997	1004.985	200.755	579.919	1020.372	213.487	695.237	504.063	208.049	598.444	503.861	126.921	692.290	81.351	182.135	639.764	99.290	401.917	652.080	64.486	20.653	682.564	989.236
187.001	828.375	1006.195	206.483	579.534	1020.676	215.349	695.078	504.023	209.878	598.266	503.855	127.004	692.227	81.485	182.283	639.722	99.330	402.103	652.255	63.980	26.526	682.736	990.574
192.952	827.969	1007.351	212.125	579.205	1021.195	217.369	694.848	503.886	211.810	598.061	503.899	127.098	692.214	81.629	182.369	639.639	99.381	402.218	652.382	63.512	32.288	682.883	991.817
199.122	827.431	1008.703	217.665	578.853	1021.459	219.270	694.702	503.895	213.703	597.880	503.956	127.160	692.210	81.790	182.530	639.674	99.414	402.340	652.479	63.102	38.116	683.005	993.032
205.206	826.845	1009.761	223.231	578.301	1021.709	221.166	694.516	503.749	215.715	597.651	503.959	127.227	692.173	81.912	182.677	639.576	99.495	402.491	652.521	62.617	43.870	683.080	994.156
211.116	826.400	1010.391	228.743	577.847	1021.802	223.498	694.165	503.767	217.728	597.388	503.939	127.346	692.110	82.068	182.842	639.583	99.523	402.717	652.539	62.090	49.644	683.136	995.272
217.335	825.810	1011.649	234.265	577.379	1022.051	226.505	693.577	504.066	219.684	597.281	503.753	127.429	692.098	82.203	183.564	640.036	99.705	403.004	652.549	61.592	55.380	683.131	996.251
223.311	825.340	1012.297	239.633	576.903	1022.157	227.477	694.012	503.553	221.691	597.084	503.596	127.578	692.122	82.356	183.788	640.129	99.785	403.242	652.549	61.075	61.138	683.261	997.146
229.342	824.698	1012.867	245.042	576.283	1022.154	229.680	693.814	503.588	223.612	596.977	503.570	127.753	692.178	82.543	183.894	640.295	99.783	403.491	652.516	60.576	66.797	683.320	998.028
235.306	824.201	1014.023	250.316	575.804	1022.226	231.933	693.633	503.673	225.520	596.862	503.516	127.857	692.358	82.693	184.080	640.438	99.884	403.904	652.628	59.814	72.571	683.560	998.629
241.363	823.597	1014.607	255.787	575.067	1022.267	234.210	693.472	503.443	227.532	596.780	503.428	128.586	693.275	82.610	184.307	640.677	99.969	404.227	652.677	59.082	78.159	683.641	999.347
247.421	822.951	1014.859	261.104	574.506	1022.150	236.082	692.953	503.115	229.547	596.685	503.363	128.803	693.547	82.716	184.496	640.889	100.136	404.418	652.727	58.530	83.740	683.828	999.863
253.339	822.449	1015.252	265.972	573.903	1022.117	238.618	692.813	502.884	231.600	596.639	503.104	128.942	693.655	82.875	184.647	641.090	100.331	404.597	652.774	57.939	89.437	684.065	1000.226
259.478	821.795	1015.941	271.131	573.333	1021.806	241.174	692.639	502.834	233.629	596.592	502.959	128.564	693.241	82.969	184.876	641.267	100.493	404.935	652.755	57.316	94.885	684.145	1000.671
265.472	821.218	1016.415	276.418	572.582	1021.560	243.777	692.460	502.685	235.663	596.600	502.891	128.712	693.245	83.277	185.111	641.525	100.606	405.326	652.745	56.694	100.420	684.200	1001.002
271.521	820.478	1016.366	281.584	571.913	1021.283	246.397	692.273	502.565	237.831	596.580	502.730	128.900	693.438	83.394	185.346	641.770	100.759	405.658	652.723	56.249	106.070	684.521	1001.157
277.623	819.881	1016.848	286.795	571.181	1020.876	248.701	692.388	502.129	240.050	596.595	502.600	129.074	693.672	83.464	185.506	641.983	100.937	405.867	652.789	55.728	111.669	684.831	1001.141
283.701	819.129	1017.046	291.847	570.619	1020.526	251.193	692.320	501.880	242.289	596.551	502.455	129.222	693.810	83.583	185.586	642.237	101.091	406.086	652.802	55.212	117.149	685.037	1001.276
289.573	818.616	1016.790	297.055	569.830	1020.133	253.925	692.190	501.726	244.485	596.620	502.148	129.285	693.956	83.629	185.791	642.430	101.250	406.308	652.867	54.736	122.646	685.229	1001.270
295.689	818.061	1017.162	302.113	569.375	1019.534	256.346	692.072	501.467	246.702	596.729	501.902	129.379	693.923	83.805	185.872	642.631	101.371	406.529	652.878	54.313	128.144	685.577	1000.937
301.613	817.430	1016.809	307.323	568.679	1019.164	258.756	692.162	501.015	249.123	596.626	501.749	129.995	694.298	83.480	186.019	642.807	101.495	406.660	652.899	53.873	133.620	685.733	1000.945
307.433	816.847	1016.485	312.427	568.101	1018.584	261.186	692.225	500.672	251.520	596.625	501.516	130.223	694.499	83.411	186.186	642.910	101.621	406.748	652.913	53.439	139.166	685.952	1000.590
313.420	816.469	1016.623	317.595	567.460	1018.080	263.646	692.112	500.454	253.989	596.522	501.353	130.203	694.430	83.580	186.301	642.993	101.781	406.869	652.906	53.095	144.657	686.202	1000.159
319.350	815.977	1015.934	322.784	566.994	1017.501	266.311	691.946	500.207	256.289	596.474	501.151	130.365	694.533	83.588	186.478	643.101	101.860	407.068	652.950	52.747	150.259	686.402	999.748
325.409	815.441	1016.231	328.361	566.527	1017.230	268.682	691.981	499.791	258.668	596.405	500.827	128.677	693.854	84.672	185.513	642.789	102.330	407.242	652.924	52.461	155.781	686.633	999.253
331.106	815.077	1015.358	333.250	565.993	1016.211	271.148	691.929	499.524	261.019	596.364	500.461	128.678	693.882	84.765	185.635	642.907	102.412	407.385	652.896	52.140	161.271	686.865	998.675
337.087	814.720	1015.417	338.589	565.560	1015.704	273.501	691.841	499.047	263.460	596.253	500.207	128.823	694.324	84.629	185.778	643.005	102.529	407.544	652.866	51.874	166.836	686.940	998.299
342.854	814.472	1014.553	343.791	565.202	1014.905	275.951	691.757	498.717	265.780	596.190	500.077	128.972	694.130	84.787	185.901	643.128	102.637	407.655	652.842	51.567	172.324	687.151	997.810
348.683	814.234	1014.357	349.246	564.740	1014.459	278.567	691.674	498.369	268.247	596.077	499.791	129.072	694.193	84.931	186.001	643.272	102.749	407.776	652.831	51.277	177.844	687.208	997.239
354.445	814.075	1013.367	354.667	564.473	1013.697	281.006	691.570	497.918	270.649	596.068	499.407	129.179	694.269	85.101	186.226	643.357	103.007	407.924	652.790	50.975	183.399	687.281	996.562
360.330	813.853	1013.150	360.010	564.208	1012.937	283.436	691.450	497.501	273.060	595.917	499.070	129.277	694.402	85.191	186.415	643.520	103.205	408.052	652.758	50.711	188.845	687.346	996.067
366.144	813.705	1012.567	365.589	563.944	1012.222	286.144	691.358	497.178	275.288	595.819	498.858	129.420	694.568	85.307	186.641	643.658	103.411	408.180	652.687	50.423	194.478	687.448	995.368
371.914	813.691	1011.711	371.028	563.787	1011.388	288.546	691.325	496.729	277.725	595.819	498.525	130.626	695.207	84.992	187.870	644.164	103.295	408.346	652.657	50.063	200.025	687.294	994.938
377.748	813.512	1011.043	376.623	563.691	1010.649	291.237	691.225	496.209	280.069	595.797	498.160	130.830	695.450	85.164	188.099	644.421	103.452	408.461	652.623	49.735	205.648	687.287	994.273
383.571	813.668	1010.260	382.198	563.556	1009.642	293.878	691.146	495.807	282.515	595.767	497.882	129.907	695.140	85.675	187.223	644.273	104.060	408.577	652.588	49.438	211.344	687.316	993.733
389.242	813.637	1009.263	387.782	563.535	1008.828	296.605	691.064	495.579	284.930	595.740	497.734	130.091	695.414	85.895	187.424	644.497	104.288	408.759	652.588	49.078	217.078	687.341	992.971
395.169	813.670	1008.716	393.517	563.451	1007.981	299.077	691.116	494.978	287.357	595.706	497.331	130.205	695.600	86.067	187.646	644.755	104.536	408.862	652.585	48.809	222.730	687.195	992.477
400.948	813.689	1007.727	399.160	563.463	1007.115	301.565	691.096	494.450	289.766	595.852	496.945	130.383	695.776	86.180	187.914	645.010	104.768	408.994	652.523	48.524	228.579	687.225	991.781
406.966	813.700	1006.918	404.909	563.421	1006.268	304.520	690.941	494.204	292.225	595.826	496.614	130.535	695.942	86.361	188.132	645.249	104.999	409.103	652.483	48.277	234.365	687.282	991.048
412.693	813.822	1005.882	410.722	563.413	1005.303	307.068	690.912	493.810	294.621	595.839	496.446	130.763	696.208	86.462	188.350	645.430	105.325	409.179	652.423	47.958	240.085	687.118	990.492
418.638	813.820	1004.907	416.641	563.344	1004.112	309.652	691.055	493.144	297.263	595.813	496.032	130.989	696.417	86.724	188.552	645.593	105.720	409.385	652.353	47.614	245.953	687.146	989.753
424.470	813.825	1003.709	422.560	563.327	1003.262	312.228	691.032	492.777	299.792	595.801	495.753	131.183	696.668	87.007	188.774	645.798	106.126	409.733	652.327	47.280	251.786	687.180	988.986
430.368	813.992	1003.133	428.285	563.359	1002.197	315.276	690.927	492.412	302.403	595.845	495.425	131.410	696.938	87.223	189.034	646.066	106.460	409.841	652.289	47.005	257.721	687.203	988.385
436.451	813.883	1002.146	434.219	563.302	1001.370	318.101	690.855	491.904	304.864	595.831	495.154	131.677	697.258	87.576	189.282	646.298	106.732	409.961	652.242	46.732	263.516	687.259	987.626
442.413	814.021	1001.437	439.979	563.341	1000.267	321.180	690.780	491.533	307.576	595.886	494.743	131.999	697.534	87.913	189.580	646.562	107.115	410.110	652.208	46.440	269.464	687.357	986.892
448.699	813.888	1000.672	445.896	563.269	999.166	324.691	690.410	491.455	310.275	595.939	494.399	132.233	697.801	88.249	189.895	646.811	107.469	410.271	652.134	46.186	275.476	687.408	986.152
454.641	813.938	999.226	451.719	563.266	998.179	327.826	690.343	490.963	313.112	595.959	494.136	132.603	698.032	88.730	190.256	647.092	107.883	410.419	652.040	45.967	281.447	687.461	985.316
460.947	813.923	998.932	457.463	563.151	997.138	331.443	690.001	490.792	315.995	595.944	493.796	133.030	698.361	89.107	190.595	647.334	108.354	410.590	651.917	45.727	287.433	687.567	984.511
467.059	813.823	998.023	462.436	563.012	995.415	334.846	689.833	490.419	318.857	595.965	493.526	133.404	698.668	89.522	191.011	647.599	108.803	410.859	651.901	45.295	293.545	687.654	983.771
473.339	813.850	997.083	468.599	563.093	994.607	338.694	689.416	490.376	321.751	596.043	493.121	133.831	698.969	90.259	191.479	647.957	109.245	411.017	651.847	44.971	299.523	687.849	982.952
479.628	813.568	996.127	474.808	563.228	993.834	341.743	689.561	489.889	324.687	596.186	492.811	134.251	699.373	90.926	191.934	648.285	109.754	411.230	651.757	44.653	305.601	688.062	982.062
485.739	813.624	995.053	480.888	563.312	992.842	343.327	690.680	488.684	327.736	596.230	492.508	134.766	699.712	91.669	192.341	648.577	110.355	411.301	651.759	44.297	310.975	687.488	981.461
492.236	813.323	994.068	486.214	562.531	991.772	346.691	690.828	488.146	330.856	596.427	492.280	135.266	699.946	92.502	192.770	648.881	111.054	411.320	651.560	44.019	317.711	688.616	980.521
498.477	813.344	993.124	492.054	562.379	990.667	350.285	690.838	487.904	333.973	596.494	491.985	135.871	700.154	93.529	193.402	649.065	111.847	411.127	651.769	43.639	323.837	688.961	979.900
504.936	813.143	992.241	497.965	562.420	989.428	353.879	690.978	487.389	337.215	596.625	491.656	136.364	700.300	94.532	193.914	649.233	112.562	411.225	651.688	43.395	329.092	688.497	979.010
511.225	813.129	990.998	503.817	562.183	987.768	357.509	691.186	487.030	340.493	596.774	491.568	136.878	700.349	95.676	194.505	649.471	113.207	411.355	651.538	43.216	335.231	688.802	978.392
517.595	813.084	990.166	509.599	562.086	986.757	361.257	691.195	486.845	343.875	596.877	491.354	137.549	700.512	96.840	195.142	649.578	114.205	411.599	651.407	42.985	341.475	689.276	977.608
524.096	813.046	989.221	515.487	561.966	985.725	365.029	691.403	486.084	347.375	597.041	491.091	138.248	700.734	97.971	195.815	649.724	115.075	411.795	651.313	42.746	347.637	689.732	976.723
530.448	813.057	988.310	521.371	562.042	984.653	369.010	691.436	485.764	350.781	597.035	491.066	138.811	700.711	99.307	196.484	649.781	115.925	411.952	651.263	42.468	353.701	690.218	975.915
536.854	813.095	987.264	527.256	562.005	983.660	372.746	691.547	485.203	354.449	597.115	490.915	139.516	700.761	100.717	197.222	649.927	116.934	412.136	651.223	42.202	360.051	690.775	975.290
543.303	813.110	986.254	533.104	561.966	982.737	376.735	691.703	484.890	358.154	597.278	490.647	140.281	700.872	102.112	197.934	649.952	117.998	412.345	651.193	41.943	366.312	691.381	974.506
549.713	813.200	985.483	539.055	562.021	981.685	380.783	691.909	484.421	361.839	597.254	490.560	140.999	700.706	103.722	198.690	649.880	118.993	412.510	651.109	41.704	372.518	691.888	973.983
556.222	813.253	984.706	545.029	562.031	980.977	382.176	693.410	482.571	365.873	597.171	490.503	141.881	700.681	105.144	199.663	649.815	120.199	412.671	651.066	41.470	378.759	692.324	973.315
562.647	813.257	983.848	551.017	562.114	980.067	386.481	693.442	482.121	369.908	597.341	490.247	142.629	700.509	106.991	200.743	649.681	121.101	412.790	651.023	41.200	385.071	692.853	972.569
569.157	813.417	983.222	556.955	562.117	979.285	390.944	693.438	481.415	373.971	597.320	490.226	143.616	700.357	108.608	201.445	649.316	122.713	412.906	651.017	40.996	391.469	693.295	971.999
575.544	813.359	982.697	562.972	562.254	978.372	395.616	693.477	481.220	378.282	597.233	490.091	144.508	700.154	110.578	202.355	649.219	124.163	413.101	650.976	40.670	397.749	693.801	971.363
581.997	813.600	982.135	569.062	562.427	977.659	400.316	693.430	480.567	382.651	597.331	489.785	145.553	699.940	112.414	203.384	649.113	125.425	413.287	650.964	40.343	404.121	694.303	970.926
588.519	813.710	981.684	575.145	562.515	976.946	405.325	693.252	480.436	387.211	597.304	489.768	146.639	699.763	114.489	204.505	648.871	126.972	413.434	650.916	40.029	410.452	694.992	970.084
594.848	813.922	981.002	581.236	562.757	976.151	410.379	693.061	479.913	391.839	597.273	489.563	147.658	699.161	116.538	205.736	648.781	128.478	413.632	650.905	39.784	416.747	695.545	969.561
601.421	814.136	980.829	587.349	562.892	975.511	415.688	692.823	479.725	396.380	597.326	489.447	148.847	698.894	118.856	206.965	648.526	130.038	413.805	650.840	39.478	423.169	696.093	969.160
607.749	814.392	980.205	593.586	563.190	974.855	421.230	692.576	479.377	401.170	597.278	489.410	150.287	698.663	121.127	208.394	648.347	131.698	413.979	650.804	39.247	429.451	696.666	968.353
614.284	814.614	979.657	599.868	563.425	974.253	426.615	692.358	479.072	406.150	597.203	489.157	151.680	698.405	123.432	209.755	648.173	133.300	414.104	650.799	38.924	435.874	697.158	967.908
620.796	815.141	979.632	606.189	563.783	973.559	432.156	692.177	478.667	411.248	597.145	489.168	153.279	698.155	125.933	211.817	647.885	134.730	414.354	650.767	38.602	442.232	697.694	967.351
627.350	815.582	979.432	612.512	564.097	972.999	437.767	691.948	478.371	416.361	597.073	488.949	154.904	697.894	128.444	213.449	647.578	136.594	414.541	650.737	38.374	448.799	698.270	966.709
633.932	815.893	979.139	618.925	564.451	972.382	443.331	691.869	477.976	421.716	596.889	488.991	156.895	697.910	131.024	215.167	647.360	138.353	414.727	650.722	38.137	455.318	698.876	966.211
640.730	816.262	978.842	625.474	564.905	971.900	449.157	691.689	477.497	426.938	596.833	488.803	158.671	697.623	133.812	216.839	647.139	140.265	414.907	650.691	37.899	461.934	699.416	965.721
647.507	816.829	978.791	631.947	565.144	971.365	454.929	691.611	477.134	432.428	596.688	488.695	160.686	697.445	136.562	218.776	646.791	142.381	415.033	650.690	37.651	468.653	699.924	965.208
654.352	817.217	978.694	638.594	565.585	970.820	460.718	691.463	476.503	437.997	596.507	488.564	162.836	697.330	139.377	220.743	646.483	144.339	415.171	650.671	37.490	475.404	700.551	964.758
661.221	817.697	978.400	645.281	565.965	970.449	466.800	691.312	476.131	443.695	596.294	488.474	165.016	697.069	142.420	222.835	646.213	146.363	415.264	650.664	37.282	482.317	701.124	964.236
668.386	818.077	978.298	651.968	566.352	969.802	472.839	691.162	475.657	449.524	596.006	488.269	167.407	696.784	145.497	225.011	645.851	148.598	415.400	650.634	37.194	489.274	701.671	963.843
675.504	818.454	978.110	658.795	566.835	969.353	479.110	690.918	474.866	455.483	595.739	488.201	170.016	696.616	148.611	227.450	645.487	150.784	415.448	650.629	37.014	496.284	702.262	963.472
682.607	818.801	977.921	665.653	567.146	968.947	485.497	690.708	474.428	461.670	595.360	487.956	172.692	696.283	151.792	229.930	645.105	153.073	415.560	650.590	36.892	503.467	702.936	963.092
689.958	819.311	977.764	672.643	567.646	968.609	492.007	690.535	473.774	468.043	594.969	487.823	175.540	696.045	155.114	232.581	644.673	155.445	415.640	650.546	36.771	510.675	703.497	962.711
697.292	819.650	977.533	679.615	568.041	968.165	498.796	690.245	472.899	474.560	594.559	487.408	178.624	695.809	158.536	235.341	644.281	157.749	415.699	650.527	36.638	517.958	704.328	962.380
704.700	820.111	977.299	686.598	568.346	967.846	505.730	689.859	472.266	481.255	594.212	487.115	181.881	695.582	162.033	238.125	643.551	160.162	415.771	650.549	36.481	525.344	705.078	961.932
712.092	820.477	976.910	693.778	568.970	967.422	512.854	689.403	471.438	488.091	593.689	486.846	185.459	695.684	165.512	241.214	643.539	162.475	415.858	650.508	36.312	532.748	705.846	961.530
719.756	820.855	976.937	700.881	569.372	966.988	520.066	688.992	470.631	495.293	593.136	486.267	189.122	695.458	169.220	244.583	642.981	165.001	415.957	650.474	36.180	540.265	706.451	961.452
727.351	821.307	976.641	708.053	569.861	966.618	527.677	688.473	469.615	502.712	592.423	485.864	193.100	695.175	172.877	247.848	642.125	167.722	416.016	650.424	36.072	547.636	707.319	960.914
734.966	821.575	976.382	715.209	570.332	966.133	535.503	687.884	468.507	510.308	591.696	485.293	197.203	694.258	176.499	251.567	641.884	170.245	416.115	650.325	35.987	555.183	708.067	960.760
