NO_OF_SAMPLES	4800
FREQUENCY	960
TIME_STAMP	2020-02-08, 11:50:02	228080.26681630
FIRST_SAMPLE	1
DESCRIPTION	Force data in local (force plate) coordinates
DATA_INCLUDED	Force
FORCE_PLATE_TYPE	Amti
FORCE_PLATE_MODEL	Unknown
FORCE_PLATE_NAME	Embedded Force Plate
FORCE_PLATE_CORNER_POSX_POSY_X	0.000000
FORCE_PLATE_CORNER_POSX_POSY_Y	1200.000048
FORCE_PLATE_CORNER_POSX_POSY_Z	0.000000
FORCE_PLATE_CORNER_NEGX_POSY_X	600.000024
FORCE_PLATE_CORNER_NEGX_POSY_Y	1200.000048
FORCE_PLATE_CORNER_NEGX_POSY_Z	0.000000
FORCE_PLATE_CORNER_NEGX_NEGY_X	600.000024
FORCE_PLATE_CORNER_NEGX_NEGY_Y	0.000000
FORCE_PLATE_CORNER_NEGX_NEGY_Z	0.000000
FORCE_PLATE_CORNER_POSX_NEGY_X	0.000000
FORCE_PLATE_CORNER_POSX_NEGY_Y	0.000000
FORCE_PLATE_CORNER_POSX_NEGY_Z	0.000000
FORCE_PLATE_OFFSET_X	-0.787400
FORCE_PLATE_OFFSET_Y	-0.812800
FORCE_PLATE_OFFSET_Z	-56.108600
FORCE_PLATE_LENGTH	1200.150000
FORCE_PLATE_WIDTH	600.202000
Force_X	Force_Y	Force_Z	Moment_X	Moment_Y	Moment_Z	COP_X	COP_Y	COP_Z
3.429666	1.451169	5.444143	-2.209321	0.551110	0.902717	-137.364291	-421.584908	0.000000	
3.511350	1.580035	7.174745	-2.035019	0.550871	0.871426	-105.026412	-296.805574	0.000000	
3.339434	1.715233	6.311733	-2.466600	0.518739	0.904819	-112.659983	-406.856561	0.000000	
3.427818	1.715741	5.791693	-2.251309	0.490119	0.903830	-118.619851	-406.148017	0.000000	
3.645455	1.758729	7.521672	-2.422419	0.730406	0.944080	-125.087936	-335.990782	0.000000	
3.469620	1.494501	6.482125	-2.294896	0.761893	0.869591	-148.357543	-367.783628	0.000000	
3.511498	1.845304	7.522769	-2.249507	0.519210	0.908232	-95.996350	-313.602476	0.000000	
3.601687	1.625892	7.174918	-2.250661	0.731417	0.925283	-130.893719	-327.212005	0.000000	
3.472097	1.448157	7.175430	-2.337175	0.518868	0.942525	-100.249343	-337.855883	0.000000	
3.646031	1.800628	7.695588	-2.120053	0.549973	0.980491	-98.836689	-289.430637	0.000000	
3.514728	1.272561	6.827175	-2.251985	0.701382	0.888003	-132.406716	-341.127280	0.000000	
3.294143	1.492014	7.003230	-2.337373	0.518729	0.888311	-101.249419	-346.522968	0.000000	
3.338134	1.582254	6.310584	-2.337688	0.549725	0.868949	-117.578961	-385.320233	0.000000	
3.288479	1.800589	7.350003	-2.249958	0.488857	0.817990	-92.402148	-320.674744	0.000000	
3.470249	1.401565	7.867678	-2.078203	0.610210	0.944455	-103.094681	-274.952482	0.000000	
3.430834	1.538159	6.311117	-2.294784	0.670712	0.976610	-137.563722	-378.097503	0.000000	
3.470117	1.625664	6.656450	-2.164787	0.610930	0.905997	-121.817874	-339.732369	0.000000	
3.470920	1.627481	6.483274	-2.423808	0.730906	0.905461	-143.563262	-388.753233	0.000000	
3.470648	1.448712	6.655382	-2.251131	0.368657	0.887469	-85.439180	-351.268464	0.000000	
3.511229	1.537211	7.001107	-2.164874	0.701751	0.853068	-129.161542	-322.351238	0.000000	
3.470472	1.493658	7.175088	-2.509759	0.669482	0.906753	-121.232681	-362.281047	0.000000	
3.381741	1.447812	6.828987	-2.250985	0.307848	0.869837	-73.652172	-342.330426	0.000000	
3.472693	1.759891	5.965141	-2.251141	0.580693	0.940267	-130.799644	-394.749071	0.000000	
3.556635	1.493791	7.000774	-2.337313	0.640541	0.870711	-120.788283	-346.649928	0.000000	
3.462690	1.846352	7.521571	-2.336095	0.700635	0.800819	-119.768046	-325.172057	0.000000	
3.423606	1.538979	5.789328	-2.165604	0.490969	0.796156	-118.773917	-389.796467	0.000000	
3.561302	1.449225	7.001839	-2.423404	0.488550	0.959973	-99.100043	-358.535710	0.000000	
3.383247	1.670190	6.138078	-2.164971	0.490105	0.904639	-111.560470	-368.791612	0.000000	
3.557926	1.583860	5.962523	-2.208602	0.672193	0.868541	-147.004584	-386.131169	0.000000	
3.733817	1.714449	7.174554	-2.206968	0.610909	0.943336	-115.137131	-321.831148	0.000000	
3.292866	1.227214	6.828022	-2.209223	0.701179	0.834078	-130.537644	-334.449697	0.000000	
3.642730	1.627296	6.827114	-2.379918	0.519884	0.834559	-106.875102	-362.784700	0.000000	
3.381525	1.845824	7.004736	-2.250196	0.609922	0.924920	-114.946538	-336.837181	0.000000	
3.469452	1.536553	7.002033	-2.250700	0.428865	0.888489	-89.837367	-334.560776	0.000000	
3.557297	1.537776	7.001258	-2.337087	0.579967	0.888628	-112.133409	-346.946166	0.000000	
3.340234	1.363064	5.097435	-2.123864	0.642500	0.848137	-163.597807	-432.469743	0.000000	
3.602557	1.625405	7.348322	-2.336455	0.549333	0.943328	-103.051188	-331.181296	0.000000	
3.513356	1.627278	6.136224	-2.165266	0.672117	0.869031	-142.445630	-368.558591	0.000000	
3.427742	1.581702	6.656849	-2.337264	0.519223	0.923546	-107.677201	-365.251082	0.000000	
3.511978	1.800834	7.869007	-2.335677	0.578971	0.926882	-99.405101	-310.473103	0.000000	
3.471483	1.802293	6.658054	-2.121307	0.701624	0.960151	-135.421897	-334.608682	0.000000	
3.292195	1.669861	6.484229	-2.208197	0.671094	0.851806	-132.771389	-355.811194	0.000000	
3.424451	1.669066	7.003002	-2.164480	0.640845	0.888972	-119.734361	-323.264355	0.000000	
3.201837	1.711700	7.177409	-2.121280	0.610247	0.835558	-110.840736	-309.743416	0.000000	
3.599050	1.711892	7.521396	-1.905074	0.641999	0.908566	-112.992157	-266.870608	0.000000	
3.782793	1.274338	6.653128	-2.338074	0.701510	0.977269	-138.129937	-362.984656	0.000000	
3.552729	1.669761	7.174040	-2.207244	0.580691	0.817706	-109.516846	-321.543157	0.000000	
3.558340	1.757782	6.656888	-1.948843	0.672473	0.942369	-131.798511	-308.384358	0.000000	
3.467720	1.626175	6.136148	-2.035681	0.491233	0.833101	-112.551690	-347.434800	0.000000	
3.423594	1.713249	6.829872	-2.078220	0.611191	0.870765	-118.400796	-319.171339	0.000000	
3.384185	1.580259	7.003915	-2.164855	0.700925	0.960534	-127.974332	-322.564458	0.000000	
3.687210	1.715845	6.827457	-2.422589	0.428991	0.852498	-93.922397	-369.744144	0.000000	
3.426466	1.493097	6.482808	-2.165251	0.550537	0.887375	-115.366009	-347.734480	0.000000	
3.335044	1.581540	6.482962	-2.208217	0.550386	0.815742	-114.548815	-355.119278	0.000000	
3.552563	1.580331	7.346742	-2.077963	0.550889	0.818079	-102.903147	-295.723593	0.000000	
3.294442	1.317466	5.270248	-1.994314	0.491728	0.812585	-129.163635	-393.248728	0.000000	
3.511839	1.626368	6.655342	-2.250888	0.550399	0.852131	-113.094722	-352.731714	0.000000	
3.598660	1.624115	7.693790	-2.077745	0.701669	0.890822	-118.230789	-282.711803	0.000000	
3.424748	1.493039	7.001850	-2.294425	0.700855	0.870727	-128.326933	-340.465568	0.000000	
3.379998	1.713167	7.349787	-2.336627	0.669916	0.889691	-117.738153	-331.808874	0.000000	
3.339320	1.670014	6.657970	-2.337343	0.670204	0.923781	-129.590665	-365.945926	0.000000	
3.251325	1.580676	7.004477	-2.380565	0.699740	0.924397	-126.730698	-353.337987	0.000000	
3.377950	1.492478	7.174581	-2.251227	0.701007	0.817403	-124.911630	-326.262828	0.000000	
3.471000	1.625442	6.656716	-2.164686	0.550360	0.923847	-112.721414	-339.701709	0.000000	
3.296992	1.624086	6.831805	-2.250746	0.428198	0.959749	-90.542311	-343.602366	0.000000	
3.252979	1.669435	6.312764	-2.251231	0.519305	0.940735	-111.962993	-372.266685	0.000000	
3.555788	1.671465	6.655176	-2.380112	0.580191	0.852133	-117.944499	-372.537820	0.000000	
3.690646	1.627075	6.481762	-2.121689	0.672305	0.923765	-136.457543	-342.229605	0.000000	
3.473551	1.539100	6.137133	-2.338002	0.670933	0.940357	-141.867834	-395.843948	0.000000	
3.597582	1.978083	7.349332	-2.033762	0.611364	0.890479	-111.439513	-292.641935	0.000000	
3.384541	1.578859	7.696873	-2.207406	0.700025	0.997965	-116.409326	-299.114935	0.000000	
3.645268	1.406132	6.826505	-2.337567	0.610691	0.870197	-120.207417	-354.795252	0.000000	
3.470335	1.669509	6.830026	-2.164568	0.640959	0.924423	-123.140491	-331.447267	0.000000	
3.468157	1.447592	7.347550	-2.207757	0.549851	0.871435	-102.106189	-312.342379	0.000000	
3.468226	1.490547	8.040710	-2.250280	0.609443	0.908998	-100.783602	-291.074793	0.000000	
3.427066	1.668885	7.003765	-2.207485	0.579933	0.942610	-111.045388	-329.368124	0.000000	
3.600540	1.581664	7.174234	-2.293665	0.580140	0.889179	-109.811114	-332.891436	0.000000	
3.554579	1.713734	6.655441	-1.948841	0.582108	0.852627	-118.217714	-308.079641	0.000000	
3.250840	1.404519	6.310435	-2.209029	0.610564	0.868814	-126.446594	-363.360592	0.000000	
3.555002	1.801291	7.868378	-2.335735	0.639666	0.909063	-107.433495	-310.508502	0.000000	
3.292180	1.446203	7.868535	-2.250964	0.760401	0.890644	-120.901308	-297.196848	0.000000	
3.465081	1.582114	7.000924	-2.337213	0.670830	0.799154	-124.378381	-347.336128	0.000000	
3.595592	1.932435	7.868208	-1.904228	0.672096	0.873923	-111.846969	-256.608501	0.000000	
3.381094	1.581750	7.002672	-2.509499	0.518276	0.870420	-101.889418	-371.849535	0.000000	
3.337058	1.358092	7.867778	-2.380174	0.548225	0.890185	-94.265151	-313.019639	0.000000	
3.381677	1.403421	7.348293	-2.337308	0.548955	0.889093	-101.313663	-329.603701	0.000000	
3.466854	1.845264	7.349759	-2.163561	0.580179	0.890025	-106.192081	-309.271426	0.000000	
3.556068	1.580103	7.521053	-2.078146	0.762108	0.908295	-128.646389	-288.911133	0.000000	
3.425322	1.759986	5.964482	-2.208231	0.671803	0.868715	-145.643677	-387.599278	0.000000	
3.643748	1.582938	6.654029	-2.250932	0.581025	0.852190	-118.831709	-352.441606	0.000000	
3.783362	1.451398	6.134923	-2.165529	0.702605	0.994390	-149.914720	-367.070819	0.000000	
3.381799	1.714260	6.311145	-2.164808	0.550531	0.887267	-118.084468	-359.066752	0.000000	
3.647006	1.580800	7.347987	-2.164221	0.640898	0.961476	-115.856522	-307.416124	0.000000	
3.472308	1.759842	5.964937	-2.337033	0.368651	0.922038	-95.252339	-409.161589	0.000000	
3.425683	1.582482	6.309853	-2.251470	0.610853	0.869162	-128.058793	-371.702793	0.000000	
3.517819	1.272862	6.654825	-2.338195	0.610170	0.941155	-122.135387	-362.897968	0.000000	
3.692185	1.762203	5.789953	-2.423477	0.550514	0.921892	-131.648150	-436.455732	0.000000	
3.336845	1.447929	7.175480	-2.294449	0.670223	0.870976	-120.284444	-331.897311	0.000000	
3.475592	1.805847	5.100256	-2.208783	0.702419	0.974284	-176.745154	-453.752075	0.000000	
3.513843	1.979216	6.831462	-2.249680	0.519605	0.942620	-105.708128	-346.380242	0.000000	
3.473051	1.359275	6.829004	-1.993075	0.702103	0.960023	-132.134618	-303.835319	0.000000	
3.425556	1.448028	7.001912	-2.165105	0.640866	0.888638	-119.764713	-321.632607	0.000000	
3.469676	1.626441	6.483063	-2.208142	0.671447	0.887694	-134.385612	-355.490741	0.000000	
3.604615	1.583267	6.655639	-2.509497	0.488631	0.941382	-104.591212	-391.208287	0.000000	
3.553699	1.623599	8.213268	-2.335770	0.518563	0.873656	-88.201564	-296.294234	0.000000	
3.423938	1.802578	6.484072	-2.121362	0.611270	0.870034	-124.688241	-343.576182	0.000000	
3.598061	1.493913	6.999681	-2.294070	0.580587	0.816974	-112.573823	-340.527011	0.000000	
3.560647	1.450870	6.308837	-2.338031	0.671126	0.922781	-138.833292	-384.312474	0.000000	
3.424553	1.539570	6.482200	-2.553363	0.670018	0.833441	-133.792349	-408.042859	0.000000	
3.422250	1.626995	6.482194	-2.380420	0.519690	0.797752	-110.581627	-382.120119	0.000000	
3.211003	1.536404	6.312943	-2.165656	0.670666	0.976584	-135.562983	-357.518296	0.000000	
3.469251	1.585018	5.789592	-2.424505	0.731767	0.832090	-160.802483	-434.943226	0.000000	
3.335436	1.712419	7.003712	-2.078167	0.610803	0.871114	-114.719771	-311.255148	0.000000	
3.427114	1.361035	6.655234	-2.338043	0.610137	0.887480	-121.358225	-363.596217	0.000000	
3.558162	1.539090	5.789225	-2.036310	0.612610	0.868170	-141.091793	-367.470910	0.000000	
3.517636	1.716256	5.964783	-2.294479	0.671298	0.958202	-146.420127	-401.628047	0.000000	
3.470977	1.449634	6.655347	-2.423687	0.428383	0.887363	-94.416607	-377.205443	0.000000	
3.336503	1.756247	7.870193	-2.379332	0.729523	0.926812	-117.268554	-315.655505	0.000000	
3.559180	1.581809	7.175314	-2.380071	0.670150	0.942907	-122.015605	-344.884774	0.000000	
3.469650	1.670119	6.829750	-2.250898	0.701145	0.906487	-131.952067	-344.105987	0.000000	
3.209527	1.580770	6.832228	-2.423805	0.669165	0.959711	-125.087596	-368.555202	0.000000	
3.468765	1.537857	6.309052	-2.122115	0.551138	0.851274	-118.993090	-350.849878	0.000000	
3.467908	1.492377	7.001310	-2.207767	0.459458	0.852667	-94.203846	-328.109040	0.000000	
3.431483	1.536705	6.657863	-2.165155	0.670860	1.013391	-130.468039	-338.965880	0.000000	
3.336889	1.712368	7.177311	-2.164298	0.640377	0.907303	-116.095963	-315.746480	0.000000	
3.426398	1.890668	6.485480	-2.035111	0.762584	0.942078	-148.013923	-330.964744	0.000000	
3.250973	1.273486	5.443500	-2.209818	0.430012	0.812619	-113.292224	-419.894570	0.000000	
3.554714	1.579935	7.347479	-1.991869	0.641791	0.872008	-115.281287	-283.973398	0.000000	
3.383962	1.670748	6.138276	-2.208373	0.671323	0.922708	-141.086120	-375.855698	0.000000	
3.647046	1.848552	6.483465	-2.336530	0.580381	0.941671	-121.866417	-377.193302	0.000000	
3.557847	1.714481	7.002612	-2.293610	0.670736	0.924866	-125.078392	-342.086482	0.000000	
3.420562	1.449207	6.653936	-2.165362	0.611420	0.762376	-121.519405	-338.458805	0.000000	
3.560710	1.626414	6.656470	-2.293984	0.580131	0.959645	-117.954177	-359.146874	0.000000	
3.292026	1.400881	8.041482	-2.164477	0.609412	0.890911	-99.540745	-279.751293	0.000000	
3.598400	1.759628	6.308793	-2.078347	0.612253	0.833893	-129.838110	-345.898986	0.000000	
3.425715	1.624460	6.656836	-1.949258	0.611766	0.906180	-121.562223	-307.325376	0.000000	
3.428867	1.314738	7.002058	-2.165177	0.459169	0.941989	-93.839694	-320.568050	0.000000	
3.727831	1.716722	6.652947	-2.336715	0.581176	0.780705	-119.582783	-366.521114	0.000000	
3.642607	1.582729	7.000011	-2.379904	0.519749	0.834903	-104.234480	-353.484921	0.000000	
3.293808	1.536589	7.176534	-2.466550	0.578504	0.888725	-107.150026	-356.522977	0.000000	
3.293039	1.490856	7.176334	-2.078790	0.670980	0.889141	-120.033237	-302.142159	0.000000	
3.472911	1.359525	7.348336	-2.337428	0.609405	0.960815	-110.235957	-329.283001	0.000000	
3.381066	1.667479	7.696334	-2.250091	0.579134	0.926264	-100.684391	-305.328067	0.000000	
3.381985	1.315579	6.655149	-2.079576	0.641491	0.869756	-125.690664	-324.380577	0.000000	
3.515785	1.537726	6.829218	-2.251320	0.761627	0.942214	-141.197779	-343.106694	0.000000	
3.514433	1.757547	6.657250	-1.948886	0.672348	0.942338	-131.402612	-308.372119	0.000000	
3.558986	1.669564	7.002697	-2.250325	0.489372	0.942562	-99.186881	-335.541166	0.000000	
3.465747	1.757623	6.829251	-2.077914	0.520719	0.834934	-105.509997	-319.520006	0.000000	
3.384822	1.540951	5.098372	-2.209931	0.884054	0.884441	-211.437300	-451.229439	0.000000	
3.552733	1.583453	6.653710	-2.337458	0.701680	0.780512	-136.203472	-365.466938	0.000000	
3.508959	1.626721	6.654544	-2.165011	0.762741	0.798699	-144.993135	-339.871944	0.000000	
3.643917	1.673285	6.134849	-2.423561	0.580741	0.833005	-128.776795	-411.164600	0.000000	
3.426006	1.581156	7.002803	-2.294070	0.640202	0.906626	-119.658412	-341.074624	0.000000	
3.252083	1.713188	6.486075	-2.164933	0.640536	0.941429	-127.675533	-349.414579	0.000000	
3.646121	1.406900	6.480286	-2.380862	0.550282	0.869267	-117.273123	-380.395024	0.000000	
3.467666	1.626306	6.655669	-2.208060	0.701705	0.852306	-135.450117	-346.279086	0.000000	
3.515684	1.581788	7.002577	-2.380156	0.609670	0.942400	-116.020641	-353.384149	0.000000	
3.557704	1.626456	7.001924	-2.380044	0.640187	0.906700	-120.726549	-353.759030	0.000000	
3.203689	1.626397	6.137984	-2.251906	0.731580	0.815048	-149.262021	-382.560540	0.000000	
3.246838	1.446375	7.175740	-2.035807	0.641029	0.835307	-115.507866	-295.829220	0.000000	
3.428805	1.625174	6.484458	-2.078729	0.611105	0.959387	-124.697558	-335.446007	0.000000	
3.381619	1.448784	6.655789	-2.208545	0.640902	0.869828	-125.587079	-344.849283	0.000000	
3.601540	1.671788	6.482196	-2.337134	0.610745	0.887660	-126.180444	-375.830107	0.000000	
3.340019	1.403678	6.656683	-2.079455	0.701629	0.923670	-134.342368	-325.030374	0.000000	
3.380801	1.802208	7.350462	-2.508783	0.638817	0.907536	-113.502611	-355.879182	0.000000	
3.512381	1.936489	6.311111	-2.207362	0.671682	0.887781	-138.442460	-367.787191	0.000000	
3.292723	1.494017	5.790428	-2.122886	0.581459	0.814053	-133.110865	-381.909547	0.000000	
3.602047	1.625278	6.828751	-2.035123	0.581418	0.924512	-115.526416	-312.189619	0.000000	
3.382868	1.494122	6.309989	-2.252003	0.761900	0.887076	-151.613037	-370.993494	0.000000	
3.297388	1.626886	5.792574	-2.294897	0.549982	0.921542	-127.672958	-412.750440	0.000000	
3.558176	1.626300	6.482614	-2.121725	0.611511	0.905691	-125.915125	-342.183543	0.000000	
3.209814	1.358064	7.177423	-2.294566	0.518246	0.960164	-98.084753	-331.121385	0.000000	
3.467418	1.670810	7.002106	-2.466247	0.639774	0.852873	-119.940933	-366.416156	0.000000	
3.511295	1.626447	6.828410	-2.251041	0.731745	0.852738	-136.801360	-343.835343	0.000000	
3.511629	1.627873	6.481925	-2.423683	0.670835	0.833765	-134.677798	-388.818056	0.000000	
3.383051	1.623521	7.003945	-2.035098	0.520086	0.942618	-102.145224	-304.383398	0.000000	
3.387662	1.494628	5.791708	-2.338195	0.489407	0.957127	-118.107567	-419.006691	0.000000	
3.421003	1.803390	6.483064	-2.250673	0.580745	0.798212	-119.973686	-363.582425	0.000000	
3.512939	1.670404	6.829156	-2.293828	0.610409	0.888462	-119.032652	-350.424337	0.000000	
3.562804	1.539947	5.790441	-2.295027	0.641331	0.957523	-146.067353	-412.082137	0.000000	
3.382036	1.623342	7.696350	-2.250310	0.639558	0.944178	-108.542313	-305.034037	0.000000	
3.777114	1.539960	6.479866	-2.337194	0.520588	0.869570	-113.832393	-374.832793	0.000000	
3.643071	1.404544	7.172490	-2.078752	0.702382	0.853457	-127.213456	-301.623075	0.000000	
3.471291	1.625520	7.003151	-2.293943	0.670420	0.942587	-124.330291	-341.394940	0.000000	
3.638421	1.669636	7.519064	-2.249856	0.489876	0.782617	-93.089119	-312.492198	0.000000	
3.733987	1.449423	6.999661	-2.207670	0.490233	0.906564	-100.755323	-327.827981	0.000000	
3.162534	1.711759	6.832782	-2.078565	0.670715	0.924391	-124.918428	-319.073960	0.000000	
3.554450	1.805706	5.962655	-2.466241	0.399090	0.796663	-101.166447	-431.419080	0.000000	
3.466642	1.533860	7.867576	-1.905527	0.701933	0.891178	-114.728640	-253.951780	0.000000	
3.598933	1.625777	7.000869	-2.207311	0.490067	0.852992	-99.631959	-329.133675	0.000000	
3.604138	1.714220	7.003014	-2.250392	0.640581	0.978654	-121.136125	-335.893453	0.000000	
3.427943	1.404655	6.655759	-2.337573	0.398325	0.905234	-89.531880	-363.864751	0.000000	
3.774311	1.715429	7.346267	-2.336291	0.701359	0.872086	-125.086013	-331.939037	0.000000	
3.206916	1.623505	6.831991	-2.078723	0.640600	0.924256	-120.889399	-318.409152	0.000000	
3.688808	1.716460	6.135246	-2.207715	0.521177	0.869082	-119.470662	-376.351592	0.000000	
3.338164	1.670233	6.484386	-2.337295	0.549502	0.887409	-114.414534	-375.714890	0.000000	
3.424878	1.404885	6.481833	-2.079572	0.732564	0.851692	-143.452213	-333.804775	0.000000	
3.468508	1.670190	6.483056	-2.121694	0.611407	0.869865	-125.114548	-342.535362	0.000000	
3.383791	1.578789	7.696638	-2.207312	0.639605	0.979985	-108.557160	-299.111364	0.000000	
3.381036	1.627113	6.310168	-2.380736	0.610223	0.851154	-127.555522	-392.566379	0.000000	
3.516130	1.714280	6.657270	-2.207597	0.610630	0.959865	-122.145670	-346.867971	0.000000	
3.119316	1.491561	7.178011	-2.509958	0.577743	0.906407	-105.658167	-362.145195	0.000000	
3.639560	1.626877	7.172585	-2.379700	0.550077	0.781666	-105.950041	-345.316525	0.000000	
3.298857	1.667350	7.525448	-2.379539	0.517504	1.033090	-94.150369	-329.443333	0.000000	
3.559039	1.630233	5.096931	-2.338324	0.551394	0.848380	-148.147942	-477.529879	0.000000	
3.557383	1.668725	7.348682	-2.206936	0.489360	0.925511	-94.540261	-313.871071	0.000000	
3.514410	1.405131	6.654742	-2.208488	0.610958	0.887737	-122.226607	-344.526776	0.000000	
3.645163	1.804519	6.309409	-2.293545	0.490198	0.887392	-110.896487	-380.372020	0.000000	
3.382504	1.757520	6.484978	-2.035290	0.611309	0.923768	-124.318562	-329.865869	0.000000	
3.598377	1.714560	7.174390	-2.336363	0.549838	0.853473	-105.568086	-339.875050	0.000000	
3.645903	1.624816	7.347968	-2.120936	0.610913	0.943637	-111.767715	-301.862392	0.000000	
3.471654	1.402016	7.521703	-2.035362	0.610606	0.961592	-107.863656	-281.869852	0.000000	
3.471435	1.536937	7.002701	-2.208110	0.761556	0.942637	-137.353700	-328.449971	0.000000	
3.428748	1.580460	6.657371	-2.078617	0.550474	0.959666	-112.371496	-326.360931	0.000000	
3.294596	1.626340	5.964967	-2.251509	0.459517	0.868151	-108.813444	-393.566169	0.000000	
3.472257	1.493569	6.656062	-2.380488	0.458669	0.923336	-98.967464	-371.045194	0.000000	
3.515843	1.627614	6.483181	-2.466730	0.640022	0.923266	-129.935502	-395.380351	0.000000	
3.466195	1.492823	7.173902	-2.337029	0.489139	0.817151	-96.080389	-338.256582	0.000000	
3.517296	1.669200	7.003784	-2.207436	0.610206	0.996451	-116.090231	-329.362724	0.000000	
3.252889	1.359217	6.657215	-2.208767	0.549570	0.923250	-110.756085	-344.053978	0.000000	
3.466766	1.669189	7.348402	-2.379399	0.428146	0.853551	-85.521711	-337.355969	0.000000	
3.344237	1.269085	7.350002	-2.079202	0.670388	1.032573	-117.525979	-293.385384	0.000000	
3.514034	1.624834	6.829456	-1.992240	0.672104	0.924591	-128.070085	-305.874806	0.000000	
3.380180	1.803647	5.964822	-2.121924	0.672133	0.850921	-145.266181	-373.518621	0.000000	
3.427095	1.626538	6.310572	-2.251337	0.610700	0.905059	-128.032491	-372.031188	0.000000	
3.688072	1.716374	6.654549	-2.379902	0.610733	0.870241	-123.660577	-372.919963	0.000000	
3.690064	1.539413	6.307716	-2.208218	0.611722	0.887239	-130.591393	-364.588292	0.000000	
3.471026	1.671147	6.137317	-2.208194	0.611152	0.904789	-132.099851	-375.888671	0.000000	
3.384777	1.403070	7.349283	-2.294275	0.609343	0.960863	-109.540664	-323.701323	0.000000	
3.471145	1.405425	6.482003	-2.294753	0.519846	0.887112	-111.032159	-366.997339	0.000000	
3.378278	2.018994	8.390793	-2.076170	0.639732	0.946592	-99.619791	-261.747979	0.000000	
3.293132	1.447165	7.522311	-2.337373	0.699800	0.889672	-118.380692	-322.332606	0.000000	
3.467426	1.626643	6.482331	-2.251122	0.580736	0.833807	-120.387722	-362.162915	0.000000	
3.292489	1.978485	6.659616	-2.121040	0.731581	0.906580	-138.380545	-335.974721	0.000000	
3.560876	1.628487	5.617270	-2.208694	0.641996	0.921500	-150.645181	-410.276150	0.000000	
3.381548	1.801229	7.004528	-2.164092	0.610311	0.924939	-115.005584	-324.197333	0.000000	
3.429394	1.580114	6.311384	-1.777333	0.703261	0.977222	-142.702347	-296.467591	0.000000	
3.517084	1.492353	7.175764	-2.250965	0.640213	0.978669	-117.506923	-326.171661	0.000000	
3.296442	1.800269	7.352460	-2.250211	0.669594	0.997340	-117.014244	-320.599834	0.000000	
3.427761	1.538628	5.963879	-2.122765	0.762801	0.904396	-160.939531	-371.225340	0.000000	
3.598593	1.670129	6.827946	-2.078225	0.642016	0.852939	-124.386519	-318.907547	0.000000	
3.428576	1.536808	6.310665	-1.992892	0.611712	0.941013	-128.204102	-330.274203	0.000000	
3.648009	1.582458	6.482184	-2.164774	0.550927	0.941409	-117.354865	-348.467710	0.000000	
3.513025	1.714128	7.002729	-2.250543	0.670878	0.906963	-124.737517	-335.927871	0.000000	
3.345363	1.450281	5.965435	-2.424592	0.579356	0.993283	-129.371453	-420.893674	0.000000	
3.555793	1.537132	7.347239	-2.336813	0.579763	0.871534	-106.850891	-330.604579	0.000000	
3.517057	1.891272	6.485516	-2.164211	0.671290	0.995660	-134.720791	-350.873932	0.000000	
3.472999	1.230044	6.307995	-2.554031	0.488601	0.886145	-109.136647	-416.641716	0.000000	
3.559808	1.536898	7.348475	-2.336890	0.639885	0.961177	-115.045169	-330.557900	0.000000	
3.425734	1.624949	6.829924	-2.121626	0.641106	0.906452	-122.797356	-324.798712	0.000000	
3.559789	1.671661	6.136846	-2.251169	0.580886	0.922691	-127.989735	-382.925048	0.000000	
3.425820	1.448269	7.001919	-2.251237	0.579986	0.888488	-111.072049	-333.935402	0.000000	
3.380949	1.714409	6.310887	-2.164861	0.580853	0.869384	-122.886479	-359.091088	0.000000	
3.514900	1.802195	7.003913	-2.207215	0.701085	0.960918	-129.044465	-330.390500	0.000000	
3.381502	1.803061	6.138446	-2.121728	0.641597	0.887130	-136.217102	-362.939535	0.000000	
3.646316	1.626361	6.828361	-2.207586	0.611022	0.924404	-120.232091	-337.473252	0.000000	
3.161529	1.577750	7.870801	-2.250564	0.669123	0.926484	-108.338268	-297.998500	0.000000	
3.514659	1.713563	7.003258	-2.207274	0.580178	0.942738	-111.790118	-329.719661	0.000000	
3.340882	1.666933	7.351498	-2.120956	0.519070	0.997136	-96.893325	-302.041889	0.000000	
3.339890	1.184071	6.308623	-2.252633	0.580394	0.868467	-122.492397	-368.415989	0.000000	
3.424264	1.713200	7.003228	-2.164306	0.610593	0.889006	-115.409337	-323.582735	0.000000	
3.605649	1.405254	7.001451	-2.294577	0.761408	0.978275	-138.432566	-339.803033	0.000000	
3.294815	1.493577	6.137404	-2.251891	0.550132	0.868460	-120.544843	-381.379870	0.000000	
3.382666	1.845620	6.658783	-2.077963	0.580647	0.942152	-116.490795	-328.427901	0.000000	
3.558283	1.538665	6.655042	-2.423448	0.489119	0.887623	-104.283257	-377.937382	0.000000	
3.680821	1.933886	8.039615	-2.248593	0.459235	0.802163	-83.597414	-293.998633	0.000000	
3.735666	1.804423	6.482774	-2.250384	0.611191	0.959700	-127.398984	-363.563093	0.000000	
3.423333	1.800869	7.349915	-2.206747	0.519371	0.889820	-97.584376	-314.801618	0.000000	
3.468435	1.713676	7.002872	-2.250395	0.549838	0.888886	-107.093372	-335.896273	0.000000	
3.295569	1.714274	6.485443	-2.337352	0.639967	0.923373	-127.976334	-376.043473	0.000000	
3.296536	1.712649	7.005350	-2.379652	0.397227	0.960132	-83.893987	-354.220759	0.000000	
3.473752	1.623813	7.177300	-2.078167	0.640695	1.014840	-117.210342	-303.054077	0.000000	
3.333542	1.669451	6.656287	-2.207686	0.459571	0.798273	-97.930305	-346.554618	0.000000	
3.686211	1.669517	7.519935	-2.206825	0.580561	0.872366	-105.494360	-306.732936	0.000000	
3.425853	1.537579	6.829214	-2.337452	0.640228	0.888190	-122.682516	-355.718038	0.000000	
3.556381	1.714266	7.002151	-2.293374	0.519648	0.888872	-103.497428	-342.073579	0.000000	
3.560200	1.536624	7.002287	-2.164564	0.550189	0.960428	-107.887706	-322.248041	0.000000	
3.250053	1.669595	6.485096	-2.251299	0.640380	0.887530	-127.653088	-362.407645	0.000000	
3.824791	1.539795	6.653850	-2.380205	0.580502	0.959611	-120.282994	-371.515502	0.000000	
3.516145	1.672081	6.137186	-2.380605	0.610433	0.922564	-132.398022	-403.998079	0.000000	
3.380960	1.582323	6.309964	-2.251517	0.610804	0.851216	-127.650961	-371.702263	0.000000	
3.387271	1.314065	7.349589	-2.165316	0.700447	1.014702	-121.950865	-305.461958	0.000000	
3.601258	1.581395	7.174489	-2.250546	0.580258	0.907137	-109.829210	-326.867542	0.000000	
3.377405	1.625651	6.655671	-2.164897	0.611129	0.798443	-121.080406	-339.788372	0.000000	
3.384563	1.492907	6.656985	-2.208550	0.731342	0.941654	-139.175121	-345.160179	0.000000	
3.557029	1.758813	7.175716	-2.465565	0.518661	0.907094	-100.880620	-358.163797	0.000000	
3.513839	1.623338	7.522199	-2.077666	0.519850	0.943900	-96.106113	-289.126045	0.000000	
3.383460	1.672174	5.618424	-2.251913	0.671698	0.885602	-154.129258	-418.320654	0.000000	
3.377630	1.625875	7.002090	-2.294251	0.791685	0.817247	-140.916789	-341.493428	0.000000	
3.337914	1.535006	7.349782	-2.078621	0.761554	0.925578	-129.885099	-295.345126	0.000000	
3.646875	1.804486	6.136788	-2.207545	0.551068	0.922963	-123.928135	-377.034354	0.000000	
3.556023	1.402889	7.693074	-2.121431	0.640878	0.890350	-110.028727	-286.803136	0.000000	
3.389894	1.539525	5.446199	-2.381406	0.459092	0.992127	-120.007187	-453.933728	0.000000	
3.508951	1.757699	7.348199	-2.250009	0.580152	0.836091	-106.532202	-320.432753	0.000000	
3.294804	1.756403	7.005293	-2.164250	0.579743	0.942693	-109.934890	-323.825636	0.000000	
3.558542	1.451458	6.134970	-2.338181	0.671490	0.868624	-142.785574	-395.210912	0.000000	
3.421070	1.622819	7.694745	-1.948630	0.732144	0.855029	-120.881791	-265.887805	0.000000	
3.598700	1.582494	7.000374	-2.379947	0.519625	0.834872	-103.859413	-353.470948	0.000000	
3.466703	1.624665	7.175060	-2.164285	0.550241	0.853418	-104.584819	-315.157527	0.000000	
3.386392	1.757390	6.832437	-2.250565	0.609696	1.013953	-117.832267	-344.638825	0.000000	
3.689309	1.229466	6.825037	-2.337931	0.550411	0.851980	-111.763130	-353.472340	0.000000	
3.601479	1.626570	7.001558	-2.336935	0.670751	0.906806	-125.448962	-347.621316	0.000000	
3.294137	1.447995	6.656565	-2.251405	0.428728	0.869495	-92.960730	-351.241288	0.000000	
3.602730	1.581699	6.828530	-2.207608	0.520159	0.924209	-106.564628	-337.101213	0.000000	
3.425519	1.799986	7.350688	-2.077343	0.489476	0.943662	-93.523857	-297.157483	0.000000	
3.780376	1.318616	6.133092	-2.208551	0.400324	0.904244	-100.644990	-372.980214	0.000000	
3.468646	1.714329	6.829725	-2.250729	0.670968	0.888606	-127.525815	-344.445553	0.000000	
3.515958	1.184647	6.480532	-2.252367	0.610926	0.886950	-125.499622	-358.628436	0.000000	
3.680984	1.714638	7.345315	-2.292852	0.429598	0.746365	-87.391275	-326.062056	0.000000	
3.383888	1.494524	5.963810	-2.295055	0.550254	0.885984	-124.889142	-399.703862	0.000000	
3.473783	1.273424	6.308706	-2.338520	0.610399	0.922387	-128.437631	-382.819811	0.000000	
3.510010	1.669514	6.655319	-1.949111	0.642558	0.834680	-126.927003	-307.752972	0.000000	
3.339572	1.624402	7.004267	-2.250811	0.579496	0.942439	-110.274198	-335.173884	0.000000	
3.642694	1.715422	7.000900	-2.379622	0.580157	0.853083	-112.850624	-354.463393	0.000000	
3.295834	1.403070	7.522823	-2.380699	0.759883	0.943374	-126.379573	-327.740988	0.000000	
3.470117	1.536282	6.829163	-2.078523	0.520441	0.906262	-105.506524	-317.794839	0.000000	
3.642950	1.803492	6.828474	-2.207147	0.641477	0.870957	-124.662479	-338.858758	0.000000	
3.156016	1.403259	6.828746	-2.122594	0.671300	0.744728	-125.023847	-323.174857	0.000000	
3.333014	1.847321	6.310877	-2.164690	0.671758	0.797989	-136.864910	-360.246332	0.000000	
3.517417	1.448604	7.002403	-2.208309	0.761539	0.978365	-137.725569	-327.784540	0.000000	
3.290607	1.537441	6.482843	-2.251553	0.580396	0.797719	-118.795408	-361.428721	0.000000	
3.382002	1.711054	7.870165	-2.206754	0.609280	0.962647	-102.315097	-293.406204	0.000000	
3.470342	1.536506	7.175582	-2.207877	0.700996	0.925067	-125.615171	-320.520463	0.000000	
3.426585	1.406140	6.482069	-2.424338	0.640210	0.869168	-129.214082	-386.991204	0.000000	
3.559949	1.582235	6.655990	-2.251096	0.640897	0.941770	-127.085754	-352.356733	0.000000	
3.559885	1.404947	6.654893	-2.165274	0.580878	0.923609	-118.087211	-338.023805	0.000000	
3.333988	1.625468	7.002488	-2.337165	0.640130	0.817011	-118.916207	-347.599249	0.000000	
3.513996	1.580608	7.175458	-2.164497	0.640813	0.925142	-117.571396	-314.825199	0.000000	
3.686909	1.758555	7.174360	-2.120864	0.732379	0.889842	-131.704490	-310.183052	0.000000	
3.340322	1.358482	7.176076	-2.165242	0.610014	0.942567	-111.911423	-313.165248	0.000000	
3.687636	1.404052	7.518651	-2.207430	0.489844	0.871868	-93.457210	-304.884493	0.000000	
3.380133	1.889021	7.178042	-1.991585	0.822664	0.925882	-141.817326	-293.033901	0.000000	
3.473533	1.359979	7.002118	-2.294543	0.579628	0.960004	-111.400082	-339.403147	0.000000	
3.290113	1.712799	7.176681	-2.293555	0.549233	0.835384	-103.040273	-333.788092	0.000000	
3.294823	1.580283	7.177243	-2.337220	0.669669	0.924849	-119.849460	-338.809889	0.000000	
3.557396	1.581633	6.309046	-1.906469	0.642937	0.887545	-134.331783	-317.059101	0.000000	
3.334804	1.625806	7.002710	-2.380422	0.730606	0.834981	-131.839101	-353.768113	0.000000	
3.420751	1.404659	6.653739	-2.122275	0.551121	0.762287	-112.462188	-331.617569	0.000000	
3.554690	1.757756	7.348357	-2.292927	0.489192	0.871812	-94.500927	-326.266744	0.000000	
3.783150	1.627766	6.309180	-2.207854	0.611440	1.012842	-131.344313	-365.231918	0.000000	
3.472479	1.405518	6.482461	-2.251923	0.701374	0.923181	-139.038849	-360.365201	0.000000	
3.383153	1.624765	7.350109	-2.422997	0.608821	0.943153	-109.444953	-342.870402	0.000000	
3.381631	1.623632	7.523001	-2.250355	0.579277	0.925786	-103.009358	-312.052310	0.000000	
3.777293	1.718625	5.961342	-2.423583	0.671843	0.868682	-149.039465	-423.538629	0.000000	
3.293158	1.445124	7.522628	-1.949193	0.610712	0.907874	-106.533259	-270.702055	0.000000	
3.428270	1.450066	5.963459	-2.122918	0.702314	0.904197	-150.812701	-370.443787	0.000000	
3.556950	1.671336	6.482339	-2.336986	0.489705	0.869583	-107.119439	-375.795086	0.000000	
3.339701	1.625631	6.311537	-2.122222	0.701695	0.923139	-141.653388	-351.509325	0.000000	
3.691085	1.582916	6.654680	-2.293890	0.520163	0.923775	-110.073592	-358.862396	0.000000	
3.420749	1.446843	7.693361	-2.121548	0.701294	0.818728	-116.891118	-287.128282	0.000000	
3.424389	1.715303	6.483385	-2.423224	0.489017	0.851556	-105.849066	-389.416432	0.000000	
3.644770	1.759206	6.828749	-2.207312	0.671579	0.906754	-129.080607	-338.505565	0.000000	
3.250597	1.536704	6.311330	-2.079452	0.701796	0.887156	-140.881862	-343.953533	0.000000	
3.465582	1.757295	7.521915	-2.293073	0.609868	0.854376	-107.717248	-318.773323	0.000000	
3.385525	1.667387	7.524479	-2.250162	0.548652	1.015397	-98.948195	-312.291736	0.000000	
3.421565	1.758213	6.656238	-2.164329	0.520424	0.816491	-107.815303	-340.791586	0.000000	
3.425963	1.534269	8.041818	-2.293110	0.487983	0.944691	-85.371323	-296.665747	0.000000	
3.562008	1.494097	6.136489	-2.122318	0.581330	0.958383	-128.089725	-360.326170	0.000000	
3.459099	1.934009	8.040624	-2.421474	0.579058	0.748222	-96.942018	-315.463558	0.000000	
3.559658	1.670846	6.829547	-2.423019	0.549238	0.942046	-110.452857	-369.324499	0.000000	
3.468443	1.669643	7.175744	-2.336707	0.609814	0.889210	-112.890502	-339.507800	0.000000	
3.551991	1.757181	7.174519	-2.034390	0.490708	0.817912	-96.961881	-298.112593	0.000000	
3.383376	1.623526	7.350388	-2.164306	0.609899	0.961325	-109.589213	-307.653732	0.000000	
3.646633	1.539659	6.134966	-2.251466	0.581297	0.886722	-128.889979	-381.883243	0.000000	
3.473178	1.535500	7.176595	-2.035452	0.731713	0.996932	-129.899911	-296.441431	0.000000	
3.606006	1.272701	6.827471	-2.294851	0.610397	0.959585	-119.824866	-347.392189	0.000000	
3.252198	1.315808	6.310273	-2.209129	0.519755	0.886498	-112.071222	-362.596955	0.000000	
3.346472	1.404282	6.485302	-2.252025	0.700477	1.048496	-137.749823	-360.212765	0.000000	
3.470122	1.536785	6.482713	-2.078610	0.399804	0.887395	-92.493989	-334.752790	0.000000	
3.556488	1.670427	7.175018	-2.422802	0.579431	0.889154	-109.355844	-351.547362	0.000000	
3.469517	1.715866	5.963918	-2.208215	0.611436	0.868614	-135.951239	-387.218210	0.000000	
3.555597	1.714963	6.309204	-2.078414	0.551563	0.851645	-119.829737	-345.489910	0.000000	
3.559624	1.712690	7.869190	-2.379080	0.639108	0.998464	-107.384598	-315.353024	0.000000	
3.555517	1.627619	6.308474	-2.251272	0.641620	0.833523	-134.118381	-372.153885	0.000000	
3.425773	1.934471	7.005052	-2.249947	0.640211	0.943032	-119.619680	-337.496584	0.000000	
3.471586	1.624771	7.349644	-2.336678	0.609380	0.961215	-110.202948	-331.147383	0.000000	
3.554986	1.712750	7.521496	-2.163711	0.580301	0.890298	-104.459107	-301.259869	0.000000	
3.340959	1.844207	7.872132	-2.379059	0.729066	1.034438	-117.213587	-316.170135	0.000000	
3.775750	1.408458	6.132194	-2.294988	0.672533	0.815008	-145.007438	-387.952320	0.000000	
3.163404	1.669633	6.659182	-2.509783	0.548021	0.905440	-109.737064	-391.771327	0.000000	
3.516385	1.403728	7.521310	-2.380187	0.578946	0.961248	-103.993535	-327.743632	0.000000	
3.557435	1.801905	7.349534	-2.249964	0.670566	0.943779	-119.185213	-320.705996	0.000000	
3.166853	1.713942	6.141048	-2.294682	0.670087	0.976281	-138.837950	-390.135353	0.000000	
3.641641	1.494837	5.960171	-1.949903	0.552987	0.779019	-127.849945	-342.040641	0.000000	
3.558191	1.714841	6.829496	-2.293749	0.670875	0.924456	-128.252178	-350.760462	0.000000	
3.250931	1.538129	5.964845	-2.252095	0.640886	0.868183	-138.811240	-392.842569	0.000000	
3.600552	1.538548	7.000628	-2.423325	0.610030	0.870691	-116.784380	-359.302206	0.000000	
3.465498	1.800335	7.349279	-1.905246	0.732648	0.872463	-126.934813	-273.800232	0.000000	
3.426520	1.364235	6.135078	-2.726600	0.669545	0.832182	-141.258618	-457.717383	0.000000	
3.689814	1.804320	6.655730	-2.293508	0.671380	0.924271	-132.765430	-360.615004	0.000000	
3.336819	1.626031	6.483683	-2.337331	0.489161	0.851446	-105.108559	-375.378496	0.000000	
3.557305	1.670218	6.482622	-2.121361	0.460343	0.887679	-102.588616	-342.507018	0.000000	
3.249265	1.579712	7.004016	-2.164903	0.640355	0.888715	-118.243805	-322.562241	0.000000	
3.426350	1.361113	6.828109	-2.467105	0.518753	0.869749	-104.915869	-373.313520	0.000000	
3.380423	1.712819	7.003607	-2.164252	0.549973	0.888910	-106.396433	-323.554499	0.000000	
3.513733	1.141584	6.133084	-2.295851	0.581068	0.814325	-127.676079	-385.595371	0.000000	
3.558617	1.625243	7.348677	-2.336547	0.579456	0.943329	-106.809867	-331.176630	0.000000	
3.382844	1.667714	7.523700	-2.207254	0.670058	0.961824	-115.074913	-306.623361	0.000000	
3.557266	1.805038	5.790522	-2.207969	0.581569	0.868366	-135.690982	-399.610594	0.000000	
3.558923	1.625040	6.829356	-2.035211	0.611467	0.942429	-119.561819	-312.172966	0.000000	
3.604984	1.623771	7.522463	-2.120728	0.549855	1.015614	-100.771379	-294.843499	0.000000	
3.560928	1.848892	5.791973	-2.164856	0.672126	0.958150	-151.327540	-392.491905	0.000000	
3.427608	1.493025	6.829502	-2.294455	0.640275	0.923997	-122.698652	-349.041233	0.000000	
3.248903	1.670038	6.657738	-2.509514	0.427505	0.851625	-92.379478	-391.819088	0.000000	
3.646048	1.890780	7.003287	-2.120509	0.641340	0.961164	-121.575588	-318.748898	0.000000	
3.603963	1.538497	6.135848	-2.079043	0.581792	0.922693	-128.561967	-353.716913	0.000000	
3.383188	1.626303	6.310934	-2.251381	0.610575	0.905029	-127.615084	-372.014623	0.000000	
3.339550	1.446389	7.176518	-2.035697	0.640829	0.942862	-116.192496	-295.782043	0.000000	
3.556781	1.628601	5.789155	-2.294609	0.520856	0.832118	-125.230732	-412.960570	0.000000	
3.554793	1.891632	6.829630	-2.250097	0.641027	0.870986	-123.851427	-345.814528	0.000000	
3.648325	1.448144	7.001152	-2.078401	0.490336	0.960377	-100.062256	-309.284140	0.000000	
3.244339	1.624259	7.349171	-2.250943	0.761052	0.800071	-129.113015	-319.498839	0.000000	
3.603402	1.448424	7.001216	-2.078741	0.671771	0.942626	-125.616179	-309.332026	0.000000	
3.604182	1.627516	6.136300	-2.294122	0.429585	0.922449	-103.750221	-389.555162	0.000000	
3.602058	1.582161	6.655144	-2.164783	0.611308	0.906023	-123.010769	-339.431403	0.000000	
3.338513	1.359932	6.309519	-2.036561	0.581338	0.868948	-122.612487	-335.682121	0.000000	
3.733415	1.493461	6.826740	-1.992404	0.672814	0.906630	-130.027830	-304.940369	0.000000	
3.471472	1.494266	5.963115	-2.165527	0.490584	0.886108	-115.721266	-378.026464	0.000000	
3.687992	1.450545	6.306570	-2.122056	0.491349	0.833314	-111.509588	-350.201485	0.000000	
3.380663	1.669100	7.176477	-2.336745	0.579317	0.889115	-107.943220	-339.474215	0.000000	
3.470101	1.537257	7.002214	-2.294201	0.670578	0.906622	-124.359826	-340.770100	0.000000	
3.557473	1.626141	7.001925	-2.293864	0.670819	0.906818	-125.099447	-341.448332	0.000000	
3.296352	1.487893	8.043475	-2.034617	0.458294	0.998501	-80.758784	-264.144287	0.000000	
3.517012	1.670676	6.657068	-2.423051	0.458435	0.959421	-99.294720	-378.875693	0.000000	
3.507858	1.757268	7.521080	-2.249777	0.519592	0.818521	-96.041378	-313.051791	0.000000	
3.469380	1.843544	8.216571	-2.249125	0.608971	0.981603	-98.593816	-287.132172	0.000000	
3.560210	1.847137	6.830929	-2.336282	0.549456	0.978229	-110.467116	-358.000241	0.000000	
3.388379	1.446746	7.004327	-2.164825	0.458658	1.031735	-93.412285	-321.471741	0.000000	
3.513731	1.360244	6.481198	-1.993086	0.551642	0.869492	-116.320435	-320.106721	0.000000	
3.687941	1.846447	6.828894	-1.991154	0.491171	0.906936	-103.014205	-307.561712	0.000000	
3.340499	1.535816	7.004059	-2.165023	0.700804	0.960437	-127.604560	-322.225821	0.000000	
3.382506	1.580218	7.176544	-2.250807	0.609808	0.924931	-112.205300	-326.801312	0.000000	
3.423886	1.623944	7.349020	-2.121213	0.640762	0.889769	-114.118388	-301.850198	0.000000	
3.427217	1.582136	6.310358	-2.208348	0.610896	0.905036	-128.068989	-364.836409	0.000000	
3.342739	1.447297	7.004135	-2.208283	0.639976	0.996026	-118.936484	-327.689486	0.000000	
3.383984	1.493520	7.002959	-2.552998	0.608610	0.924088	-114.807918	-377.338958	0.000000	
3.251481	1.801778	6.832726	-2.379929	0.609041	0.942137	-116.623562	-363.921749	0.000000	
3.292010	1.756684	7.177628	-2.207384	0.670379	0.889413	-119.919894	-322.081702	0.000000	
3.337680	1.492004	6.656611	-1.993081	0.762650	0.888123	-143.490996	-312.802680	0.000000	
3.733715	1.671567	6.481386	-2.164494	0.581565	0.905806	-122.838207	-349.238726	0.000000	
3.202947	1.758901	6.311759	-2.337524	0.670549	0.815508	-135.498147	-386.792894	0.000000	
3.512293	1.584086	5.615940	-2.165625	0.551774	0.813855	-134.129875	-402.260452	0.000000	
3.470671	1.713903	6.484038	-2.078394	0.581123	0.923688	-120.443907	-336.183914	0.000000	
3.295269	1.712775	6.831936	-2.164660	0.670629	0.942314	-126.011417	-331.723675	0.000000	
3.426860	1.623281	7.696263	-2.250117	0.548865	0.962026	-97.086313	-305.011972	0.000000	
3.383456	1.581874	6.137615	-2.122301	0.611295	0.904679	-131.316314	-361.059866	0.000000	
3.466087	1.537076	7.001006	-2.250862	0.519906	0.816925	-102.827526	-334.636980	0.000000	
3.643863	1.536289	7.346801	-2.077986	0.550843	0.889735	-103.593374	-295.388008	0.000000	
3.516730	1.582308	6.310151	-2.208156	0.550501	0.940863	-119.297951	-364.819567	0.000000	
3.202956	1.801679	6.658512	-2.293710	0.488898	0.834158	-101.201964	-360.472775	0.000000	
3.560154	1.625814	7.002704	-2.336772	0.549412	0.960391	-107.770004	-347.535187	0.000000	
3.424006	1.494803	6.308659	-2.381027	0.580262	0.815122	-123.218849	-391.529513	0.000000	
3.337772	1.622763	7.350291	-2.077933	0.489318	0.925418	-92.837612	-295.901007	0.000000	
3.563254	1.318115	6.135590	-2.295325	0.610826	0.957978	-132.927076	-386.966846	0.000000	
3.511910	1.847262	7.003134	-2.379418	0.609869	0.889054	-116.009686	-355.377612	0.000000	
3.383187	1.844682	7.351723	-2.206791	0.609611	0.979531	-109.528852	-315.064814	0.000000	
3.512594	1.539717	6.135276	-2.337934	0.641259	0.832863	-137.430900	-395.958034	0.000000	
3.337349	1.666079	7.696967	-1.991492	0.610335	0.944437	-104.411178	-271.695232	0.000000	
3.473189	1.448869	6.309873	-2.079231	0.550965	0.940760	-118.989592	-343.216687	0.000000	
3.642813	1.759073	7.174480	-2.336289	0.610378	0.871551	-114.352625	-340.208490	0.000000	
3.386372	1.537325	6.657713	-2.337615	0.639869	0.977325	-125.435845	-364.882560	0.000000	
3.598232	1.714454	6.654849	-2.121017	0.430301	0.834409	-95.784717	-333.985225	0.000000	
3.556295	1.714338	6.829018	-2.164364	0.641354	0.888720	-123.922575	-331.834576	0.000000	
3.255290	1.359210	6.831068	-2.337960	0.548630	0.977279	-107.839457	-354.230894	0.000000	
3.502244	1.537543	7.344800	-2.164830	0.823210	0.674866	-139.622474	-307.301646	0.000000	
3.337710	1.625570	6.657261	-2.251247	0.670742	0.887969	-129.671639	-352.677583	0.000000	
3.472830	1.671265	6.484055	-2.509466	0.458141	0.940979	-101.495401	-402.295913	0.000000	
3.512264	1.580566	7.174962	-2.121390	0.641155	0.889354	-117.613551	-308.838650	0.000000	
3.556547	1.537986	6.308348	-2.078817	0.491084	0.851313	-110.267305	-344.026449	0.000000	
3.599033	1.804323	6.655467	-2.379693	0.580303	0.852364	-118.320766	-373.578725	0.000000	
3.738748	1.626976	6.309538	-2.035585	0.702827	1.013080	-145.425957	-337.901300	0.000000	
3.384123	1.539271	6.310445	-2.510464	0.700173	0.904737	-141.831592	-412.325816	0.000000	
3.512810	1.623588	7.695038	-2.163858	0.579896	0.926375	-101.760872	-293.852929	0.000000	
3.472757	1.492836	6.483210	-2.122033	0.520382	0.941162	-111.108265	-341.044563	0.000000	
3.648145	1.537627	7.001537	-2.250804	0.610549	0.960470	-117.224902	-334.607850	0.000000	
3.600125	1.670197	6.828423	-2.078363	0.732609	0.888868	-137.657543	-318.906132	0.000000	
3.467685	1.672249	5.962958	-2.337550	0.520346	0.814575	-120.679677	-408.559609	0.000000	
3.600166	1.534682	8.213227	-2.206671	0.549296	0.927461	-92.261291	-279.969750	0.000000	
3.474200	1.271655	6.655454	-2.122710	0.641179	0.959286	-126.415387	-330.476416	0.000000	
3.551725	1.803354	7.001302	-2.293339	0.641003	0.799559	-120.805842	-342.823774	0.000000	
3.340520	1.537222	6.830669	-2.380739	0.700058	0.941897	-130.714560	-361.976565	0.000000	
3.561117	1.494690	6.655558	-2.509839	0.518762	0.941250	-108.753023	-390.517724	0.000000	
3.647644	1.628023	6.309001	-2.337347	0.610863	0.923044	-130.051562	-385.769644	0.000000	
3.513235	1.494658	6.135327	-2.165597	0.641957	0.850882	-137.549395	-367.453345	0.000000	
3.470873	1.579957	7.176092	-2.121324	0.580311	0.943004	-108.792828	-308.776198	0.000000	
3.557651	1.626454	6.828799	-2.250986	0.731645	0.906515	-137.159892	-343.807818	0.000000	
3.338354	1.804037	6.138791	-2.423476	0.579632	0.886735	-125.721153	-412.082335	0.000000	
3.465786	1.535578	7.347499	-2.078171	0.550569	0.835865	-102.186449	-295.379680	0.000000	
3.563320	1.627755	5.964471	-2.208595	0.762408	0.994114	-162.133008	-386.417227	0.000000	
3.511071	1.580355	7.347819	-2.121304	0.671338	0.871882	-118.963849	-301.578998	0.000000	
3.425487	1.625196	7.003006	-2.207862	0.731325	0.906876	-132.662751	-329.107430	0.000000	
3.513337	1.537540	6.828495	-2.208071	0.671301	0.888413	-127.964690	-336.807805	0.000000	
3.383135	1.624277	7.177020	-2.250629	0.579481	0.942880	-107.977322	-327.099355	0.000000	
3.165296	1.582555	5.446936	-2.166333	0.701780	0.902937	-162.232415	-414.830530	0.000000	
3.691668	1.539557	6.654435	-2.466522	0.549646	0.923570	-114.513128	-384.452379	0.000000	
3.336999	1.669445	7.003700	-2.337073	0.670074	0.888772	-123.195392	-347.878413	0.000000	
3.296919	1.404019	6.483955	-2.208737	0.549830	0.922937	-114.115664	-353.609019	0.000000	
3.467285	1.581587	6.482140	-2.078740	0.551262	0.833879	-115.842952	-335.190207	0.000000	
3.379363	1.536121	7.175328	-2.207833	0.610303	0.853245	-112.268626	-320.522580	0.000000	
3.511754	1.671614	6.309085	-2.337176	0.489869	0.833310	-109.663533	-386.125061	0.000000	
3.380579	1.757727	6.830689	-2.207478	0.610411	0.888588	-117.919219	-338.421738	0.000000	
3.292229	1.669375	6.484266	-2.164888	0.550296	0.851718	-114.141534	-349.125829	0.000000	
3.604661	1.625230	7.522160	-2.379565	0.639520	0.997540	-112.693039	-329.276191	0.000000	
3.337062	1.448259	6.655941	-2.208348	0.489615	0.851718	-102.478926	-344.807498	0.000000	
3.645833	1.627862	6.481626	-2.380233	0.550186	0.887516	-117.231780	-382.132215	0.000000	
3.428841	1.491181	7.176500	-2.078641	0.670980	0.978811	-121.092233	-302.116991	0.000000	
3.470876	1.450267	6.655294	-2.467093	0.609676	0.887516	-121.656934	-383.735899	0.000000	
3.380322	1.713452	7.003554	-2.207659	0.731266	0.889063	-132.282292	-329.759815	0.000000	
3.337884	1.492201	7.002857	-2.294313	0.579541	0.888450	-110.289102	-340.393949	0.000000	
3.467232	1.757912	7.002829	-2.207257	0.610596	0.871145	-115.760580	-330.092671	0.000000	
3.511537	1.712508	7.175657	-2.034591	0.520537	0.889509	-100.787154	-297.744168	0.000000	
3.558028	1.537358	6.828404	-2.164812	0.611048	0.906337	-119.509716	-330.475642	0.000000	
3.556884	1.712840	7.522003	-2.249835	0.519272	0.925978	-96.352879	-312.689862	0.000000	
3.426462	1.538180	6.656105	-2.423723	0.579488	0.887629	-116.732376	-377.914458	0.000000	
3.381815	1.624035	7.003453	-2.164304	0.428917	0.906561	-89.124627	-322.857619	0.000000	
3.555174	1.757999	7.348557	-2.250149	0.701042	0.889999	-123.330902	-320.438547	0.000000	
3.382652	1.449170	6.829147	-2.423877	0.579232	0.887875	-113.397117	-367.650470	0.000000	
3.554588	1.403429	7.692563	-2.207667	0.640643	0.854434	-109.994988	-298.036478	0.000000	
3.380179	1.625295	6.310219	-1.992656	0.581705	0.851506	-123.027523	-331.046875	0.000000	
3.558126	1.625191	7.002222	-2.164322	0.550330	0.924731	-107.892235	-322.926106	0.000000	
3.645766	1.449657	6.827008	-2.251063	0.520253	0.888166	-106.955742	-342.456058	0.000000	
3.293898	1.493872	6.137130	-2.252041	0.640950	0.850642	-135.339845	-381.424034	0.000000	
3.644806	1.671081	6.654963	-2.207608	0.611307	0.888230	-123.374335	-346.625410	0.000000	
3.646175	1.494079	6.654319	-2.122070	0.732623	0.906094	-141.628975	-332.311913	0.000000	
3.380388	1.493596	6.309287	-2.165542	0.611271	0.833252	-127.733569	-357.326262	0.000000	
3.464185	1.802061	7.175403	-2.207053	0.640924	0.817909	-117.198257	-322.490083	0.000000	
3.475109	1.801093	7.005565	-2.163929	0.579789	1.050376	-111.381250	-324.125218	0.000000	
3.425078	1.580773	7.175695	-2.336855	0.518955	0.888948	-99.890168	-338.835761	0.000000	
3.557332	1.759437	6.656337	-2.250750	0.731772	0.906304	-140.709583	-353.780071	0.000000	
3.251665	1.712931	7.178539	-2.509050	0.487204	0.942566	-94.072412	-363.722313	0.000000	
3.596187	1.625556	7.692779	-2.379416	0.609880	0.818764	-106.296390	-321.974252	0.000000	
3.383297	1.625432	6.484298	-2.121991	0.671433	0.923548	-133.610516	-342.128408	0.000000	
3.383170	1.536565	7.003205	-2.294186	0.609759	0.924411	-114.961412	-340.714297	0.000000	
3.469056	1.448966	6.828171	-2.208368	0.671260	0.870333	-127.600786	-336.139445	0.000000	
3.424927	1.538940	6.655570	-2.510106	0.669996	0.851810	-130.327557	-390.930196	0.000000	
3.421966	1.844644	7.349888	-2.077331	0.550266	0.872132	-101.777692	-297.529014	0.000000	
3.299032	1.627413	5.619908	-2.252254	0.761897	0.957233	-169.295677	-417.824281	0.000000	
3.643305	1.671767	6.654436	-2.293942	0.671567	0.852379	-132.427030	-359.632503	0.000000	
3.429107	1.359988	7.002244	-2.380673	0.488451	0.941874	-98.021031	-351.697464	0.000000	
3.467684	1.535667	7.348006	-2.164295	0.489540	0.871545	-93.888427	-307.080735	0.000000	
3.689327	1.715935	6.828157	-2.379804	0.640692	0.906515	-124.934315	-363.441029	0.000000	
3.379783	1.801260	7.004024	-2.121033	0.640900	0.889184	-119.367044	-318.073250	0.000000	
3.382000	1.757336	7.004308	-2.250397	0.579683	0.924754	-110.640094	-336.177627	0.000000	
3.426708	1.627316	6.310310	-2.423751	0.579758	0.886940	-123.131010	-399.375986	0.000000	
3.468421	1.714105	6.483306	-2.121375	0.490412	0.869801	-106.446548	-342.852904	0.000000	
3.644203	1.670983	6.481622	-2.121424	0.551410	0.869924	-117.406501	-342.576144	0.000000	
3.295331	1.448207	6.483708	-2.251491	0.398545	0.886967	-90.773223	-360.598928	0.000000	
3.471512	1.537517	7.002494	-2.466363	0.488249	0.924171	-98.328535	-365.344448	0.000000	
3.293851	1.755854	7.351489	-2.121101	0.730894	0.943721	-125.348266	-302.740737	0.000000	
3.474588	1.316464	6.482563	-2.208856	0.580435	0.958791	-120.398859	-352.945252	0.000000	
3.560287	1.669317	7.003176	-2.164282	0.610597	0.978609	-116.500587	-323.230157	0.000000	
3.344836	1.448972	5.965480	-2.165807	0.520014	0.993474	-119.417946	-377.497854	0.000000	
3.514948	1.668795	7.003085	-2.164041	0.429137	0.942551	-90.227341	-323.195705	0.000000	
3.515165	1.715078	6.137421	-2.078775	0.672269	0.922996	-142.459259	-355.197143	0.000000	
3.468691	1.492374	7.001553	-2.207812	0.489631	0.870615	-98.516328	-328.104079	0.000000	
3.601627	1.580128	7.001662	-1.905765	0.581860	0.924984	-112.752504	-285.662845	0.000000	
3.295624	1.491666	6.830611	-2.165192	0.610230	0.924000	-117.196149	-330.049452	0.000000	
3.382828	1.624760	7.003666	-2.293789	0.519008	0.924446	-101.993532	-341.341964	0.000000	
3.294668	1.714008	6.312088	-2.165085	0.671197	0.905251	-136.409128	-359.054882	0.000000	
3.381021	1.403321	7.001827	-2.122066	0.580517	0.870603	-110.790316	-315.131324	0.000000	
3.426112	1.803588	6.311420	-2.250983	0.701426	0.905424	-142.381533	-373.499173	0.000000	
3.471299	1.581767	6.483347	-2.122079	0.701933	0.923576	-139.096072	-341.814062	0.000000	
3.468833	1.406410	6.827453	-2.639355	0.488007	0.833812	-100.771673	-398.950481	0.000000	
3.467614	1.671891	6.309392	-2.337560	0.701477	0.833508	-142.804326	-386.169685	0.000000	
3.644672	1.582404	6.827615	-2.164799	0.732358	0.888680	-138.002998	-330.882075	0.000000	
3.246875	1.536602	6.656557	-2.165370	0.671184	0.816198	-128.986093	-339.063739	0.000000	
3.299196	1.360139	6.138001	-2.123001	0.610843	0.958030	-130.464142	-359.124299	0.000000	
3.379402	1.625520	6.656203	-2.250875	0.459358	0.834025	-98.286117	-352.677153	0.000000	
3.160958	1.666962	7.524756	-2.250596	0.669468	0.907881	-113.325888	-312.334777	0.000000	
3.383341	1.580498	6.657236	-2.121734	0.520060	0.923729	-107.422386	-332.844555	0.000000	
3.468179	1.714989	7.002585	-2.509135	0.579007	0.870747	-111.261190	-372.869719	0.000000	
3.336278	1.625283	6.656808	-2.250963	0.489406	0.851942	-102.427686	-352.656389	0.000000	
3.646428	1.227651	6.999067	-2.165174	0.429776	0.888231	-91.424125	-320.006202	0.000000	
3.340827	1.623963	7.177876	-2.250713	0.609455	0.978713	-111.809649	-327.069729	0.000000	
3.557443	1.627132	6.655439	-2.337260	0.670980	0.888038	-131.595198	-365.710808	0.000000	
3.470117	1.625664	6.656450	-2.164787	0.610930	0.905997	-121.817874	-339.732369	0.000000	
3.163872	1.712356	6.486790	-2.035821	0.731606	0.941593	-140.937851	-329.465241	0.000000	
3.560754	1.452485	5.615905	-2.424580	0.520211	0.885058	-128.994708	-447.059112	0.000000	
3.422502	1.801507	7.522744	-2.379167	0.579033	0.872209	-103.285193	-330.512592	0.000000	
3.161531	1.535566	6.831179	-2.251291	0.518950	0.870044	-102.722740	-342.986488	0.000000	
3.648188	1.493107	7.174446	-2.293808	0.549727	0.960706	-105.941368	-332.208950	0.000000	
3.250263	1.578841	7.523873	-2.293676	0.548468	0.925552	-97.922983	-317.439919	0.000000	
3.300616	1.316366	6.311153	-2.381476	0.488490	0.975903	-107.532185	-389.859811	0.000000	
3.514636	1.492167	7.175041	-2.207716	0.549887	0.924868	-104.910590	-320.175295	0.000000	
3.381602	1.536984	7.002692	-2.337357	0.639964	0.888570	-119.270558	-346.907515	0.000000	
3.645859	1.891946	7.003016	-2.379151	0.610014	0.942960	-117.105569	-355.703561	0.000000	
3.290524	1.578175	8.042094	-2.250210	0.609086	0.873176	-99.482179	-291.627524	0.000000	
3.381496	1.759176	6.484427	-2.337197	0.670609	0.887704	-133.465243	-376.466900	0.000000	
3.644880	1.710309	8.214506	-1.904411	0.611019	0.981869	-100.066461	-244.330077	0.000000	
3.424933	1.582825	6.309589	-2.294637	0.640984	0.851236	-132.832721	-378.562834	0.000000	
3.468571	1.758510	6.656837	-2.164513	0.671487	0.888347	-130.894809	-340.791210	0.000000	
3.473158	1.402660	7.175722	-2.035636	0.610810	0.978686	-113.066571	-295.464359	0.000000	
3.247129	1.490296	7.695558	-2.293754	0.518389	0.854135	-91.824380	-309.740634	0.000000	
3.467131	1.980608	6.138115	-2.207184	0.520604	0.851412	-117.295462	-378.504156	0.000000	
3.341733	1.537788	6.138254	-2.251756	0.580201	0.940252	-125.855746	-381.709308	0.000000	
3.639463	1.800392	8.040054	-2.076785	0.610905	0.856013	-102.168584	-271.681991	0.000000	
3.600971	1.536366	7.347404	-2.164255	0.550259	0.907534	-103.177947	-307.105742	0.000000	
3.381701	1.713786	7.003825	-2.379870	0.579185	0.906644	-110.574235	-354.337844	0.000000	
3.251195	1.619341	8.390747	-2.033861	0.367136	0.999394	-66.282843	-254.034563	0.000000	
3.383566	1.667947	7.177506	-2.164223	0.549539	0.960915	-103.801765	-315.380098	0.000000	
3.515732	1.581154	6.829505	-2.207691	0.519835	0.942062	-105.787361	-337.060775	0.000000	
3.121803	1.358951	6.831622	-2.338292	0.669396	0.941486	-124.411937	-354.248701	0.000000	
3.640888	1.493569	6.999090	-2.164638	0.551115	0.799185	-108.715783	-322.060288	0.000000	
3.336316	1.800249	7.177773	-2.077722	0.580258	0.907456	-107.708333	-304.351430	0.000000	
3.426966	1.579722	7.176454	-2.121368	0.580186	0.942973	-108.426734	-308.764825	0.000000	
3.597560	1.625666	7.346824	-2.293364	0.549974	0.835878	-103.121086	-325.385398	0.000000	
3.113680	1.534263	7.350111	-2.121829	0.670445	0.817790	-115.771994	-301.204805	0.000000	
3.511692	1.450201	6.827281	-2.380840	0.701013	0.834395	-132.325681	-361.455445	0.000000	
3.819588	1.714857	7.346428	-2.206848	0.671663	0.908043	-121.386850	-314.307519	0.000000	
3.556840	1.450426	6.480960	-2.251678	0.671670	0.851615	-135.218007	-360.799531	0.000000	
3.380814	1.492968	6.655783	-2.251344	0.519791	0.851806	-107.383922	-351.652322	0.000000	
3.425581	1.492121	7.521695	-2.380181	0.669655	0.907672	-115.370588	-328.385462	0.000000	
3.600300	1.671385	6.828182	-2.422992	0.549661	0.870415	-110.870764	-369.398528	0.000000	
3.378018	1.622658	8.041592	-2.206884	0.609523	0.873348	-100.153167	-286.568323	0.000000	
3.075785	1.623047	7.179528	-2.294192	0.669160	0.942719	-118.028786	-333.043396	0.000000	
3.512958	1.625172	6.482750	-1.906200	0.612421	0.887959	-125.661665	-308.920607	0.000000	
3.424583	1.403609	7.174551	-2.165144	0.671053	0.871100	-121.101719	-313.570841	0.000000	
3.471131	1.802171	6.657858	-2.207150	0.459334	0.941889	-99.031324	-347.511035	0.000000	
3.594397	1.536039	8.038291	-2.164161	0.822378	0.801979	-128.184485	-280.766038	0.000000	
3.554955	1.581389	7.347225	-2.379660	0.488899	0.853545	-94.477533	-336.774926	0.000000	
3.552242	1.624758	7.346936	-2.077984	0.641627	0.818243	-115.248517	-296.057957	0.000000	
3.469297	1.579236	7.175830	-1.862884	0.732776	0.925508	-130.031522	-272.766466	0.000000	
3.425491	1.447347	7.001954	-2.078681	0.520260	0.888593	-102.538889	-309.282429	0.000000	
3.778439	1.713083	7.520954	-2.077198	0.550687	0.980083	-102.196037	-289.781060	0.000000	
3.341010	1.359202	6.829845	-2.165520	0.610292	0.941746	-117.591186	-329.046196	0.000000	
3.337901	1.802757	6.312135	-2.121872	0.792496	0.905588	-156.009151	-352.995113	0.000000	
3.204159	1.711575	7.524384	-2.336466	0.548288	0.889847	-97.548714	-324.095103	0.000000	
3.294317	1.668018	7.177720	-2.250546	0.549055	0.924937	-103.033608	-327.397807	0.000000	
3.645997	1.624507	7.694412	-2.163964	0.731358	0.962462	-122.424965	-293.897274	0.000000	
3.338621	1.446419	7.349382	-2.121743	0.610133	0.925239	-109.294239	-300.552193	0.000000	
3.421334	1.492040	7.520460	-2.293923	0.640166	0.818147	-111.436494	-316.968838	0.000000	
3.648043	1.584129	6.135656	-2.294594	0.671694	0.922675	-143.621496	-389.276068	0.000000	
3.517697	1.317131	5.962392	-2.079748	0.490961	0.921789	-116.233295	-362.018529	0.000000	
3.815961	1.716056	6.998917	-2.164226	0.793498	0.817818	-144.753462	-323.792946	0.000000	
3.473122	1.667394	7.350647	-2.034739	0.610496	1.015328	-110.351656	-290.351193	0.000000	
3.466784	1.447482	7.693504	-2.293809	0.609758	0.854321	-105.326831	-309.518062	0.000000	
3.600235	1.579662	7.867176	-2.120886	0.731440	0.926987	-119.437839	-281.665697	0.000000	
3.377590	1.669288	7.521915	-2.422903	0.699868	0.836236	-119.025946	-335.377086	0.000000	
3.379207	1.491212	7.348247	-2.164607	0.549865	0.853567	-101.419239	-306.773830	0.000000	
3.565614	1.493236	6.310854	-2.079094	0.611257	1.048446	-129.346581	-343.536194	0.000000	
3.555549	1.981175	6.310731	-2.293281	0.580750	0.869779	-124.425482	-381.821317	0.000000	
3.558304	1.316131	7.000202	-2.251337	0.489630	0.888283	-99.253308	-332.972226	0.000000	
3.470209	1.627841	6.136598	-2.423753	0.519602	0.868580	-117.189114	-410.663526	0.000000	
3.378389	1.757693	7.176393	-2.293534	0.670393	0.853558	-120.617750	-334.149615	0.000000	
3.560436	1.581370	7.348923	-2.379973	0.700109	0.979181	-123.237943	-336.739838	0.000000	
3.422840	1.581654	7.001796	-2.337200	0.640309	0.834921	-119.665392	-347.287410	0.000000	
3.469984	1.667314	7.696097	-2.077734	0.700992	0.962458	-117.169513	-282.940783	0.000000	
3.644519	1.273249	6.825572	-2.165780	0.793032	0.852448	-146.932007	-328.583180	0.000000	
3.465787	1.713930	7.002102	-2.207438	0.640997	0.835280	-120.102667	-329.800353	0.000000	
3.557646	1.493053	6.654846	-2.078754	0.551156	0.887964	-113.602939	-325.767988	0.000000	
3.426344	1.537498	6.483021	-2.208241	0.550341	0.887399	-115.330900	-354.738438	0.000000	
3.251919	1.712727	6.486093	-2.078655	0.610673	0.941482	-123.069573	-336.107683	0.000000	
3.602015	1.624937	6.828771	-1.991911	0.521115	0.924489	-106.695087	-305.857954	0.000000	
3.601901	1.625305	7.001857	-2.121213	0.580895	0.924837	-112.613777	-316.787043	0.000000	
3.380412	1.579328	7.176074	-2.035193	0.580670	0.889281	-108.135880	-296.769483	0.000000	
3.557892	1.494963	6.135200	-2.165647	0.702502	0.868894	-147.829094	-367.471982	0.000000	
3.556238	1.670037	7.001902	-2.207514	0.671274	0.889054	-125.154924	-329.468804	0.000000	
3.517824	1.493356	6.309983	-2.122125	0.520571	0.958698	-114.567612	-350.404091	0.000000	
3.648217	1.758107	7.349357	-2.336074	0.579468	0.997337	-107.485775	-332.095994	0.000000	
3.426553	1.449595	6.482529	-2.208832	0.762082	0.887494	-148.004755	-354.095637	0.000000	
3.557488	1.494559	6.654554	-2.380608	0.580133	0.869782	-117.961053	-371.155519	0.000000	
3.203579	1.710677	7.351274	-1.991883	0.670955	0.889909	-116.509305	-284.827104	0.000000	
3.387367	1.626531	6.312153	-2.337736	0.700560	0.994618	-141.883506	-385.625815	0.000000	
3.734013	1.715531	6.481840	-2.078282	0.672613	0.923972	-136.878865	-336.294340	0.000000	
3.295372	1.844493	6.659772	-1.948701	0.580900	0.960134	-115.776077	-308.960469	0.000000	
3.471472	1.625006	6.830082	-2.164543	0.550146	0.942174	-109.852757	-331.075292	0.000000	
3.647308	1.627425	6.655427	-2.251225	0.852875	0.942127	-159.683278	-352.786887	0.000000	
3.251529	1.624949	6.658486	-2.251326	0.670343	0.923738	-128.861828	-352.619360	0.000000	
3.686421	1.846778	7.347926	-2.206558	0.641104	0.890203	-116.186534	-315.211391	0.000000	
3.251566	1.580206	6.485169	-2.036066	0.701695	0.923507	-137.119362	-328.441696	0.000000	
3.425993	1.759524	6.137868	-2.251056	0.580654	0.886901	-126.707593	-383.646217	0.000000	
3.514458	1.270072	7.520153	-2.035897	0.731883	0.925723	-124.331983	-281.014409	0.000000	
3.298992	1.670826	6.139733	-2.380906	0.670081	0.976221	-140.074031	-403.868421	0.000000	
3.553708	1.581177	7.346957	-2.250515	0.610540	0.835888	-111.028139	-319.207546	0.000000	
3.511485	1.712226	7.695208	-2.163709	0.640457	0.908659	-109.619014	-294.473423	0.000000	
3.514023	1.493134	6.828332	-2.294036	0.428941	0.888000	-92.480002	-349.040369	0.000000	
3.295069	1.580036	7.004161	-2.250984	0.579450	0.924426	-109.912845	-334.848115	0.000000	
3.298785	1.359925	6.311101	-2.122959	0.671198	0.958506	-136.467170	-349.288124	0.000000	
3.335643	1.491751	7.175465	-2.208050	0.640430	0.853180	-116.123279	-320.199788	0.000000	
3.293923	1.492378	6.830065	-2.208558	0.761425	0.888289	-139.328176	-336.430864	0.000000	
3.424024	1.715695	6.483325	-2.380498	0.731190	0.851860	-143.199995	-382.833393	0.000000	
3.554902	1.670638	6.308740	-2.035428	0.551834	0.833706	-119.875283	-338.307370	0.000000	
3.338213	1.403740	7.175535	-2.380604	0.548778	0.888609	-103.369349	-343.556080	0.000000	
3.561692	1.491135	7.695273	-2.250351	0.549027	1.015665	-98.102849	-304.117982	0.000000	
3.473888	1.537626	6.656974	-2.251446	0.731245	0.977571	-139.913687	-351.981313	0.000000	
3.428497	1.405668	6.309496	-2.338046	0.519594	0.904543	-113.627140	-383.872842	0.000000	
3.471892	1.713951	6.657610	-2.121606	0.731880	0.960050	-139.978878	-333.931304	0.000000	
3.302933	1.538032	5.274296	-1.993934	0.672295	1.028099	-163.390781	-395.221889	0.000000	
3.429081	1.582299	6.310858	-2.294521	0.580115	0.940748	-123.197962	-378.463699	0.000000	
3.473736	1.711600	7.524232	-2.163718	0.549206	1.033527	-99.682907	-301.142856	0.000000	
3.554386	1.493580	7.000070	-2.337033	0.459280	0.816769	-94.888147	-346.642927	0.000000	
3.423845	1.671867	5.963337	-2.337495	0.459726	0.814479	-110.094189	-408.521056	0.000000	
3.382365	1.493524	6.829349	-2.423850	0.639723	0.888007	-122.248917	-367.999972	0.000000	
3.775006	1.672396	6.480232	-2.164706	0.733151	0.852254	-146.609605	-349.340663	0.000000	
3.471270	1.534732	7.349254	-1.991963	0.580678	0.961391	-106.300918	-283.572741	0.000000	
3.387069	1.495623	5.445172	-2.252638	0.732125	0.938736	-170.142754	-429.918609	0.000000	
3.510591	1.803177	6.656184	-2.164402	0.702005	0.852647	-135.846615	-341.184327	0.000000	
3.386571	1.539324	5.618521	-2.252276	0.671487	0.939148	-154.119989	-417.051404	0.000000	
3.598911	1.582733	6.827255	-2.337020	0.550204	0.834536	-110.953720	-356.127691	0.000000	
3.472267	1.801876	6.658325	-2.078091	0.641246	0.978044	-126.355020	-328.101078	0.000000	
3.556855	1.584834	5.962015	-2.424085	0.610887	0.832432	-136.724153	-422.315903	0.000000	
3.645781	1.669218	7.348181	-2.163926	0.610717	0.943661	-111.736844	-308.043050	0.000000	
3.297380	1.359474	6.657076	-2.165800	0.670802	0.941370	-129.344391	-337.609014	0.000000	
3.337736	1.580148	6.657110	-2.078622	0.490029	0.887877	-102.528991	-326.371758	0.000000	
3.383948	1.712534	6.658389	-1.992105	0.580969	0.959953	-116.556812	-314.431116	0.000000	
3.556910	1.494992	6.134938	-2.122634	0.763264	0.851087	-157.730644	-360.476690	0.000000	
3.335849	1.755321	7.523785	-2.077569	0.579984	0.908211	-102.751150	-290.036563	0.000000	
3.383543	1.448990	6.310049	-2.079617	0.732351	0.905063	-146.934689	-343.269450	0.000000	
3.463797	1.624487	7.520538	-2.250199	0.519555	0.800375	-95.714566	-312.139799	0.000000	
3.472820	1.581156	6.656991	-2.164852	0.580462	0.959644	-117.254027	-339.339369	0.000000	
3.557531	1.670029	6.829070	-2.207454	0.550348	0.906429	-110.605625	-337.777751	0.000000	
3.165722	1.625722	5.793872	-2.079839	0.792475	0.939839	-168.222785	-375.528802	0.000000	
3.427418	1.625212	7.003522	-2.293937	0.640048	0.942523	-119.635575	-341.373670	0.000000	
3.291234	1.758801	5.791754	-2.035858	0.551571	0.814506	-127.905653	-369.361255	0.000000	
3.248991	1.445285	7.869182	-2.164628	0.669843	0.908516	-109.075616	-286.194557	0.000000	
3.249648	1.669472	6.311775	-2.208084	0.489549	0.869084	-107.236384	-365.489179	0.000000	
3.558876	1.625261	7.002457	-2.164415	0.610751	0.942711	-116.523103	-322.929233	0.000000	
3.295073	1.535366	6.830835	-2.035772	0.641050	0.924227	-121.699669	-311.451149	0.000000	
3.468768	1.493320	6.828373	-2.208341	0.731751	0.870465	-136.453430	-336.489928	0.000000	
3.470664	1.581048	7.002703	-2.250860	0.610196	0.924582	-115.733054	-334.908055	0.000000	
3.117522	1.581832	5.965661	-2.295124	0.579970	0.832218	-127.326590	-400.412864	0.000000	
3.644398	1.979413	6.657014	-1.991152	0.612089	0.924741	-123.450602	-316.602172	0.000000	
3.518783	1.405110	6.309754	-2.079549	0.702182	0.976718	-143.362852	-342.884377	0.000000	
3.382124	1.714265	6.657588	-2.294016	0.640343	0.905973	-125.473655	-359.831828	0.000000	
3.559359	1.581989	6.309541	-2.035756	0.611964	0.923215	-129.429768	-337.528211	0.000000	
3.296688	1.361934	5.444306	-2.166545	0.520839	0.866670	-130.429592	-412.795685	0.000000	
3.467667	1.979108	6.657975	-2.163596	0.489981	0.888485	-103.603482	-342.454346	0.000000	
3.563363	1.404469	6.482805	-2.079071	0.520607	0.994880	-111.934105	-333.673834	0.000000	
3.516331	1.536820	6.656208	-2.164646	0.399180	0.941497	-90.399516	-338.974452	0.000000	
3.690528	1.713751	7.175176	-2.120778	0.611094	0.961306	-114.814487	-309.785613	0.000000	
3.250323	1.578885	7.177634	-2.078576	0.670698	0.925074	-119.638384	-302.745816	0.000000	
3.733459	1.668650	7.693931	-2.077426	0.671492	0.962611	-115.289479	-282.989975	0.000000	
3.338446	1.536406	7.003317	-2.294233	0.609709	0.906464	-114.594165	-340.714315	0.000000	
3.381838	1.492215	6.829393	-2.165065	0.580381	0.888198	-113.554569	-330.094040	0.000000	
3.559502	1.450024	6.308622	-2.165479	0.611474	0.904971	-129.372236	-356.966326	0.000000	
3.251764	1.626048	5.619360	-2.079417	0.490612	0.885418	-120.563344	-387.093823	0.000000	
3.335258	1.801075	7.004155	-2.164049	0.549915	0.871097	-106.018061	-324.207262	0.000000	
3.382622	1.581181	6.656952	-2.208113	0.610493	0.905826	-121.005637	-345.840253	0.000000	
3.469681	1.489950	7.521690	-1.991713	0.429454	0.925741	-83.765167	-276.723173	0.000000	
3.727881	1.935796	7.174157	-2.206269	0.550842	0.836112	-106.724279	-323.482586	0.000000	
3.381132	1.491138	7.695183	-2.293856	0.669776	0.908137	-112.478869	-309.775150	0.000000	
3.423925	1.713063	7.522570	-2.422431	0.518279	0.889884	-95.222006	-335.611698	0.000000	
3.340961	1.403633	7.003357	-2.165691	0.882302	0.960433	-153.536808	-321.294317	0.000000	
3.379451	1.402410	7.347820	-2.078628	0.550258	0.853519	-101.480383	-294.412192	0.000000	
3.466042	1.624062	7.175044	-1.948955	0.702439	0.853795	-125.792086	-285.142656	0.000000	
3.602503	1.405694	6.480915	-2.165377	0.581291	0.887398	-121.668861	-347.098621	0.000000	
3.379728	1.668907	7.003114	-2.164527	0.640795	0.871025	-119.367028	-323.264651	0.000000	
3.515406	1.494337	6.309182	-2.208609	0.671649	0.905029	-138.506240	-364.164893	0.000000	
3.426356	1.448794	6.482568	-2.079342	0.671916	0.887524	-134.093162	-334.111548	0.000000	
3.381502	1.448101	6.482705	-1.993062	0.611755	0.869598	-124.421949	-320.789315	0.000000	
3.467987	1.581878	6.655475	-2.208039	0.610966	0.852142	-121.823093	-345.911456	0.000000	
3.555737	1.712688	6.829083	-1.862368	0.521708	0.888889	-106.396869	-287.595722	0.000000	
3.251690	1.800687	7.006114	-2.250394	0.579156	0.960559	-109.492919	-336.437865	0.000000	
3.734740	1.715988	6.481872	-2.293513	0.459919	0.923529	-104.070885	-369.501830	0.000000	
3.517081	1.580685	6.656882	-1.992444	0.641776	0.977827	-126.839538	-313.441750	0.000000	
3.471765	1.493650	7.002255	-2.509700	0.548557	0.924127	-106.946417	-371.194378	0.000000	
3.472029	1.624912	7.176552	-2.336671	0.518776	0.960707	-100.220515	-339.114838	0.000000	
3.558228	1.491465	7.694252	-2.207398	0.640261	0.944144	-109.947901	-298.578184	0.000000	
3.602366	1.450657	6.654208	-2.380783	0.640682	0.887727	-127.444919	-370.830940	0.000000	
3.206856	1.621536	6.659176	-1.561532	0.673218	0.942306	-128.903932	-248.968781	0.000000	
3.604521	1.627505	7.002281	-2.595611	0.669374	0.960296	-125.263793	-384.534618	0.000000	
3.732678	1.495580	7.172422	-2.638706	0.579060	0.870881	-110.721702	-380.408512	0.000000	
2.941115	1.531996	7.006374	-1.734233	0.671656	0.888892	-120.204090	-260.603558	0.000000	
3.117611	1.668111	6.139759	-1.949762	0.550963	0.868902	-119.014729	-333.620217	0.000000	
3.559100	1.712711	7.522727	-2.206904	0.640230	0.979898	-112.439231	-306.951969	0.000000	
3.733691	1.624888	8.386166	-2.594078	0.487148	0.963478	-83.857508	-321.012527	0.000000	
3.952900	1.632445	6.478514	-2.983591	0.578765	0.851336	-124.358465	-475.487266	0.000000	
3.297675	1.669609	7.351546	-2.767672	0.485891	0.978516	-92.049638	-390.030469	0.000000	
3.382586	1.538567	5.963771	-2.208802	0.611204	0.868286	-135.097746	-385.658023	0.000000	
3.508671	1.799938	7.175602	-1.732693	0.612765	0.854208	-113.618633	-256.357259	0.000000	
3.117996	1.358787	6.311069	-1.993763	0.641478	0.850986	-130.151220	-328.808350	0.000000	
3.113152	1.711999	6.312054	-1.777396	0.763619	0.798117	-149.438549	-297.618605	0.000000	
3.425193	1.447179	7.001939	-1.992598	0.611387	0.888777	-115.551242	-296.987553	0.000000	
3.162286	1.448501	6.311142	-2.295077	0.519259	0.850720	-111.177899	-377.345338	0.000000	
3.338762	1.801129	6.485791	-1.906055	0.732672	0.941978	-142.636825	-310.276051	0.000000	
3.295832	1.621596	7.178290	-1.776496	0.611444	0.979152	-111.728641	-260.969726	0.000000	
4.221602	1.588426	7.516588	-3.456418	0.303816	0.978563	-72.719480	-472.508519	0.000000	
3.862498	1.848213	8.212258	-2.766078	0.577838	0.909674	-97.539990	-350.263394	0.000000	
2.715232	1.308407	5.446889	-0.443264	0.890479	0.724979	-192.241030	-95.670108	0.000000	
1.960452	1.255251	6.143863	0.504735	1.013474	0.619608	-183.648301	69.876319	0.000000	
3.646996	1.494640	7.000767	-2.423590	0.730924	0.924532	-134.423077	-358.981025	0.000000	
4.582975	1.816207	7.690270	-4.834923	0.207012	1.157243	-61.143773	-642.770556	0.000000	
4.629606	1.728032	6.997536	-4.533925	0.239146	1.191660	-72.084889	-662.600439	0.000000	
3.737294	1.363374	6.826539	-2.639343	0.579052	0.941522	-116.328591	-398.648388	0.000000	
3.736109	1.673443	7.693658	-3.370136	0.212089	0.942924	-55.600959	-451.057760	0.000000	
3.829590	1.541070	7.174413	-3.069357	0.425398	1.049573	-90.031075	-440.684986	0.000000	
2.180812	1.259794	4.410163	0.589827	0.985852	0.561962	-252.073807	116.902025	0.000000	
0.637064	0.933659	4.074221	2.957669	1.476628	0.490803	-371.992866	712.276220	0.000000	
2.713898	1.308446	6.139079	-0.787531	0.827964	0.708299	-160.459054	-141.053151	0.000000	
3.554448	1.889660	8.041928	-2.421526	0.608886	0.909488	-101.300746	-315.109630	0.000000	
4.667036	1.814029	8.208414	-4.403429	0.299657	1.123232	-69.195014	-549.665643	0.000000	
5.818302	2.046550	8.894701	-6.297449	-0.130276	1.284913	-22.843328	-721.722699	0.000000	
4.623324	1.856513	7.863066	-3.929226	0.301847	1.140831	-72.166036	-513.766937	0.000000	
0.811768	1.111740	3.900324	2.872310	1.265207	0.472553	-336.850236	719.622745	0.000000	
0.281363	1.193634	3.731801	3.906308	1.480262	0.455243	-401.679440	1028.002755	0.000000	
3.564275	1.448977	7.349053	-2.595569	0.487203	1.032285	-94.294653	-365.059589	0.000000	
4.358756	2.033723	7.346271	-4.101722	0.210139	1.103581	-62.683060	-574.686372	0.000000	
4.088533	1.941358	7.519631	-3.369606	0.485203	0.997200	-95.819345	-463.406372	0.000000	
6.349410	2.184657	9.930842	-7.502764	-0.226127	1.376231	-13.891004	-768.657231	0.000000	
4.890359	1.771496	8.553598	-4.790929	0.207234	1.195320	-57.094179	-572.540091	0.000000	
-2.643296	0.548312	0.629594	8.812632	2.527099	-0.068689	-3779.074974	13947.645100	0.000000	
0.721752	1.067556	2.168510	3.646752	1.270188	0.379509	-605.204626	1653.250560	0.000000	
4.805400	1.728738	7.688773	-4.834946	0.207419	1.211011	-62.831585	-642.260134	0.000000	
2.759947	1.309069	6.658760	-1.132073	0.886404	0.763032	-157.161952	-181.856048	0.000000	
6.438738	2.095603	9.237543	-6.986008	-0.283576	1.392880	-9.197954	-769.803943	0.000000	
7.813226	2.024729	10.612998	-10.173954	-0.477273	1.572786	2.876416	-970.148577	0.000000	
1.298143	1.028558	4.935222	1.752402	1.260529	0.527859	-270.960809	342.574209	0.000000	
-6.011823	-0.060843	-4.200666	15.786938	3.462707	-0.666712	743.235552	-3759.824541	0.000000	
2.186065	1.347503	5.797502	-0.141387	0.769131	0.707749	-154.610197	-38.241517	0.000000	
4.666032	1.681631	8.207251	-4.403860	0.330067	1.087233	-72.903058	-548.890885	0.000000	
2.804315	1.572255	6.314301	-0.527894	0.859000	0.816953	-161.746879	-98.386679	0.000000	
6.574791	2.056604	9.582875	-8.278862	-0.470876	1.428080	9.853840	-876.776925	0.000000	
8.161890	2.598680	12.171746	-10.472181	-0.690888	1.630815	18.349986	-873.160095	0.000000	
-0.071688	0.970863	2.867048	4.421758	1.633826	0.381623	-569.248077	1522.455916	0.000000	
-5.661647	0.116783	-3.509979	15.659097	3.401983	-0.646833	877.940300	-4460.254115	0.000000	
1.565468	1.251394	4.762296	1.580952	1.109015	0.617210	-252.105414	316.416159	0.000000	
4.719532	1.594910	7.516234	-4.576997	0.299068	1.246523	-75.808291	-621.667019	0.000000	
3.870440	1.760921	7.348015	-2.766898	0.517525	1.032830	-100.772197	-390.809423	0.000000	
7.587978	2.241639	11.653903	-10.043086	-0.659438	1.521615	19.264844	-873.384112	0.000000	
7.940855	2.199389	12.343907	-10.301375	-0.418391	1.577190	-2.987581	-845.341225	0.000000	
-2.291312	0.683692	-0.238193	8.985213	2.469054	-0.070189	9825.241654	-37562.170471	0.000000	
-5.657053	-0.100057	-4.203536	14.882341	3.096532	-0.649905	660.351911	-3542.582073	0.000000	
1.032158	1.245885	4.765399	2.442170	1.444460	0.528476	-316.054300	496.997603	0.000000	
4.136786	1.634106	6.652422	-3.457261	0.425100	1.012476	-99.579853	-534.294918	0.000000	
4.441609	1.724133	7.342276	-3.800882	0.303028	0.978165	-76.001197	-531.659211	0.000000	
8.166424	2.468974	11.825335	-11.076187	-0.844674	1.664863	31.893880	-949.176384	0.000000	
6.126078	2.051233	9.411179	-7.245108	-0.224717	1.267408	-13.432818	-782.882656	0.000000	
-6.328639	0.066005	-3.506694	16.520438	3.495302	-0.789734	894.703112	-4710.871682	0.000000	
-1.849100	0.599016	1.143374	7.822912	2.161305	-0.014462	-1800.334079	6811.747526	0.000000	
2.361573	1.570782	5.450897	-0.270210	0.769311	0.707257	-166.230820	-66.553279	0.000000	
5.063179	1.818451	8.724440	-5.221605	0.175719	1.123799	-53.490706	-611.010775	0.000000	
6.353598	2.053260	10.104054	-8.020022	-0.440516	1.429447	7.528564	-805.957700	0.000000	
7.946946	2.512515	11.654234	-11.076514	-0.784666	1.664430	28.281370	-963.337463	0.000000	
2.765786	1.265334	5.621146	-0.874228	0.827528	0.850269	-175.611653	-168.967863	0.000000	
-6.724421	-0.246794	-5.236964	17.595827	3.379717	-0.865310	572.525520	-3363.386145	0.000000	
-1.359198	0.782737	0.622326	7.004317	2.158977	0.091593	-3347.449449	11183.681031	0.000000	
3.739664	1.451997	6.827729	-2.768328	0.517748	0.995208	-107.349241	-418.198635	0.000000	
5.683684	2.001634	9.414138	-6.469805	-0.101360	1.232101	-23.895538	-699.986121	0.000000	
6.974758	2.058703	9.927319	-8.536859	-0.471635	1.536416	7.300512	-872.384487	0.000000	
7.327181	2.106115	11.309980	-9.569824	-0.597509	1.574690	15.692858	-857.400943	0.000000	
-2.380825	0.593857	0.627403	8.813110	2.467422	-0.086417	-3720.623070	13993.038151	0.000000	
-3.092610	0.278331	-1.275697	10.491237	2.596448	-0.323000	1898.507784	-8212.495152	0.000000	
-0.651007	1.008262	2.697172	5.584994	1.880035	0.256885	-684.283770	2048.897401	0.000000	
5.511144	2.091072	8.377820	-6.427536	-0.040493	1.265585	-32.863719	-782.025954	0.000000	
6.306426	2.140787	9.411646	-7.374054	-0.195005	1.375062	-17.664338	-797.078417	0.000000	
6.702185	2.188675	10.620584	-8.364004	-0.320348	1.395084	-6.032121	-799.903236	0.000000	
6.353177	2.187156	9.238864	-7.805016	-0.287559	1.410054	-8.246002	-858.898220	0.000000	
-2.159178	0.637915	0.453506	9.072205	2.348119	-0.032735	-4911.349682	19924.854749	0.000000	
-2.774341	0.591312	-0.234590	9.243322	2.378102	-0.070505	9472.914618	-39261.377326	0.000000	
1.389288	1.205185	4.936654	1.753203	1.139397	0.617634	-247.381208	340.629343	0.000000	
5.643287	2.223176	9.763053	-6.942991	-0.225262	1.322201	-10.146641	-724.739006	0.000000	
6.262739	1.963580	9.584035	-7.503514	-0.377239	1.356936	1.909337	-795.226326	0.000000	
6.085591	1.871664	9.758175	-6.900535	-0.163445	1.357916	-19.029395	-718.728914	0.000000	
4.491483	1.634282	9.074847	-4.446323	0.177221	1.142637	-48.086503	-500.878508	0.000000	
-1.446632	0.781447	1.142676	6.832486	1.975981	0.110312	-1659.010614	5940.186810	0.000000	
-2.380437	0.549003	1.319901	8.555052	2.344651	-0.067313	-1675.979654	6457.434924	0.000000	
-0.030401	0.883597	3.211464	4.077043	1.541700	0.310241	-480.317517	1253.277357	0.000000	
4.174542	1.985271	8.038226	-3.455113	0.424225	0.980495	-82.702634	-444.505726	0.000000	
5.151934	1.862718	9.243773	-5.436444	0.113940	1.160712	-44.385206	-600.238903	0.000000	
5.201175	1.734427	8.377626	-5.997904	0.081879	1.193732	-45.395494	-728.372089	0.000000	
4.844745	1.769725	9.246399	-4.704382	0.327927	1.197148	-65.651422	-520.331666	0.000000	
1.922823	1.080178	4.413003	0.761647	0.924946	0.669108	-234.830500	158.044871	0.000000	
-1.183835	0.737747	2.352289	6.488583	2.034640	0.130945	-837.511574	2740.002623	0.000000	
-0.424709	0.836351	1.483421	5.195912	1.758706	0.307128	-1170.297536	3470.208003	0.000000	
3.027358	1.444890	5.792440	-1.261223	0.735797	0.814819	-157.139115	-232.544756	0.000000	
4.973951	1.637492	8.724171	-4.488956	-0.002657	1.106086	-32.472256	-525.886547	0.000000	
6.221028	1.784789	9.757402	-7.202251	-0.285623	1.411192	-7.288137	-749.207979	0.000000	
4.441644	1.678192	8.208112	-3.800451	0.392928	1.016081	-79.020104	-475.296046	0.000000	
3.249571	1.490126	6.657408	-1.777303	0.581876	0.888079	-115.577591	-280.337718	0.000000	
1.871827	1.481606	3.547451	0.503214	0.985496	0.506193	-308.197185	117.605630	0.000000	
1.521794	1.427620	4.590881	1.839576	1.351996	0.653384	-313.882492	382.441369	0.000000	
2.142678	1.259386	5.624277	-0.098948	0.920584	0.707380	-185.843458	-30.969571	0.000000	
2.848933	1.619509	6.313870	-1.217319	0.704883	0.798289	-137.745086	-208.005414	0.000000	
3.294895	1.312857	7.175976	-1.820693	0.732495	0.925027	-128.626092	-264.798565	0.000000	
4.316174	1.811905	6.653118	-3.628783	0.273201	1.102109	-78.251189	-561.519309	0.000000	
3.248675	1.579599	7.350213	-2.251000	0.730434	0.889549	-124.962437	-319.120450	0.000000	
3.248885	1.489225	6.138048	-1.174603	0.887460	0.887772	-175.069242	-205.790169	0.000000	
2.007534	1.387430	5.625871	0.763634	0.893868	0.690394	-179.694431	121.086018	0.000000	
1.340641	1.116807	5.454601	1.666688	1.380833	0.529301	-267.727983	293.255651	0.000000	
3.112654	1.355153	7.002814	-1.389810	0.764825	0.799611	-134.943665	-210.135176	0.000000	
3.779420	1.804362	7.867557	-2.938766	0.425566	0.980052	-81.832168	-387.210564	0.000000	
4.093497	1.720766	7.519543	-3.585642	0.393222	1.068217	-83.625168	-490.495763	0.000000	
3.244810	1.622227	6.483750	-1.561318	0.462347	0.798375	-100.175744	-255.655944	0.000000	
2.850706	1.575444	6.487246	-1.346689	0.734270	0.834368	-138.630001	-222.029229	0.000000	
2.981996	1.266767	5.964572	-1.089128	0.706220	0.779239	-147.241514	-195.328794	0.000000	
1.959753	1.299672	5.624489	0.762980	1.105858	0.600881	-216.952354	121.875212	0.000000	
2.985103	1.621186	5.967559	-1.389764	0.613726	0.868953	-131.697789	-248.942107	0.000000	
3.509018	1.535638	6.827554	-1.733778	0.643466	0.817189	-123.869893	-267.371014	0.000000	
2.323324	1.172499	5.623620	-0.314578	0.919756	0.796734	-187.520204	-68.449953	0.000000	
3.910804	1.810771	6.133797	-3.371001	0.304871	0.867987	-86.264685	-566.954829	0.000000	
2.848144	1.440937	6.312798	-0.829743	0.676457	0.780459	-133.258295	-145.058227	0.000000	
3.562696	1.496462	7.001989	-3.113063	0.455223	0.959323	-94.349582	-457.401305	0.000000	
3.339111	1.799554	7.005466	-1.991328	0.399072	0.960681	-84.497051	-299.479329	0.000000	
3.697443	1.318799	7.001018	-2.725728	0.668777	1.031424	-125.945672	-400.715228	0.000000	
3.518060	1.494307	6.656179	-2.509829	0.488315	0.959102	-103.805774	-390.476717	0.000000	
2.892330	1.443142	6.485444	-1.217982	0.916693	0.780777	-167.156481	-201.100440	0.000000	
3.289046	1.843506	7.177606	-1.819110	0.672249	0.854100	-120.157696	-268.666309	0.000000	
2.892544	1.752208	5.448601	-0.700464	0.859236	0.797142	-188.272648	-147.415207	0.000000	
2.761797	1.487880	5.101649	-0.917056	0.767612	0.759685	-181.625533	-196.933560	0.000000	
3.112053	1.621963	6.311421	-1.432637	0.704745	0.780345	-140.115389	-242.223180	0.000000	
2.669901	1.614861	5.795568	-0.054018	0.831131	0.762386	-170.043528	-25.767330	0.000000	
3.339487	1.538627	6.483719	-2.596260	0.487867	0.886887	-104.931470	-414.555367	0.000000	
3.777730	1.583886	7.346127	-2.724349	0.487760	0.907104	-96.038057	-383.765407	0.000000	
2.671725	1.481962	7.007401	-0.570881	0.888133	0.818360	-148.922175	-94.147200	0.000000	
3.068412	1.623581	5.272607	-1.347243	0.675743	0.742072	-161.600991	-273.607676	0.000000	
3.246398	1.710937	7.004400	-1.690710	0.914759	0.871763	-157.390325	-255.896470	0.000000	
3.025673	1.665163	6.313067	-1.217452	0.977456	0.834604	-182.509218	-208.458535	0.000000	
2.888836	1.442304	6.484501	-1.045296	0.766523	0.709123	-143.992129	-174.491737	0.000000	
3.783491	1.630878	6.655062	-3.026805	0.637832	0.994969	-128.527585	-469.375153	0.000000	
3.113212	1.358875	6.136481	-1.864484	0.582147	0.743146	-124.119462	-317.073684	0.000000	
3.382200	1.667747	6.311450	-1.604679	0.704121	0.923750	-142.417571	-269.887965	0.000000	
3.517569	1.405004	7.175084	-2.552777	0.487713	0.960158	-96.267707	-367.583383	0.000000	
3.022976	1.620098	6.831494	-1.346126	0.734709	0.781634	-133.163173	-211.166058	0.000000	
2.808344	1.704273	6.143156	-0.527249	0.616773	0.906059	-126.837493	-102.205777	0.000000	
3.476899	1.496450	5.618067	-2.510897	0.609942	0.974653	-144.079807	-462.690658	0.000000	
3.553897	1.980972	6.829788	-2.422358	0.670573	0.853066	-128.167161	-371.762438	0.000000	
2.805239	1.266298	6.138836	-1.175638	0.856511	0.761689	-165.950459	-203.894987	0.000000	
4.263238	1.765942	8.036132	-3.714344	0.423417	0.962052	-83.242687	-475.348044	0.000000	
3.604216	1.581575	7.002137	-2.293691	0.519486	0.960365	-103.857820	-341.056198	0.000000	
2.495609	1.174953	5.447784	-0.487022	0.919999	0.706699	-195.366314	-102.312321	0.000000	
2.979640	1.974994	6.660930	-1.561067	0.854571	0.817473	-154.182497	-251.810943	0.000000	
3.736304	1.673147	7.174507	-2.853856	0.638204	0.960577	-118.961724	-411.675051	0.000000	
2.667619	1.614443	6.487533	-0.311963	0.708580	0.727812	-133.080588	-62.862071	0.000000	
3.111904	1.886650	6.659460	-1.517781	0.673659	0.817279	-128.164712	-244.622095	0.000000	
4.093681	1.721169	6.999996	-3.499591	0.242861	1.048992	-68.294864	-514.550674	0.000000	
3.734275	1.672804	6.481349	-2.423230	0.610659	0.905582	-127.332719	-389.171474	0.000000	
2.896819	1.398263	6.659636	-1.346951	0.703875	0.870341	-130.886257	-214.849368	0.000000	
4.627876	1.771091	7.690183	-4.533439	0.359575	1.193500	-81.310600	-603.244790	0.000000	
3.112303	1.577178	6.657661	-1.432626	0.795138	0.799113	-146.448916	-229.289318	0.000000	
2.983398	1.400991	6.311884	-1.605939	0.763969	0.815644	-148.344471	-267.697711	0.000000	
3.730849	1.801998	8.732740	-2.765814	0.516480	0.928597	-83.901424	-329.108586	0.000000	
4.046419	1.676730	7.864908	-3.801024	0.331666	0.997000	-71.825062	-496.063645	0.000000	
4.000352	1.719280	6.479931	-2.810382	0.307048	0.940954	-82.810255	-449.405242	0.000000	
4.092909	1.587294	7.172423	-3.155349	0.516500	1.049838	-104.817363	-453.157757	0.000000	
3.157403	1.623211	6.311289	-1.691228	0.673394	0.798002	-135.554087	-283.212205	0.000000	
2.849195	1.440300	6.140161	-0.528413	0.889524	0.816406	-171.693138	-100.032792	0.000000	
3.733251	1.673277	7.000415	-2.767684	0.578531	0.888525	-113.351989	-409.584202	0.000000	
3.201749	1.533700	6.656997	-1.604827	0.613063	0.816657	-119.866362	-254.813281	0.000000	
3.556515	1.846871	7.522585	-2.465325	0.699784	0.926160	-120.338736	-342.311123	0.000000	
3.562686	1.582960	7.176063	-2.767847	0.516958	0.996105	-100.682817	-398.895269	0.000000	
3.642510	1.804269	6.655087	-2.250501	0.701994	0.852654	-136.979471	-354.187039	0.000000	
2.367068	1.217399	5.277208	-0.142571	1.132657	0.796410	-240.586435	-40.772812	0.000000	
3.381999	1.713954	7.003840	-2.465953	0.488058	0.906460	-97.565397	-366.629291	0.000000	
3.068142	1.486121	6.311451	-0.786333	0.707440	0.798671	-140.151438	-138.612628	0.000000	
2.541807	1.309279	5.448580	-0.960516	0.706115	0.742062	-156.558621	-190.582845	0.000000	
4.177213	1.764095	7.344974	-3.154391	0.365579	0.996668	-82.470010	-443.751346	0.000000	
3.737092	1.628060	7.001453	-2.595429	0.639425	0.978271	-122.063439	-384.558478	0.000000	
3.159887	1.757186	6.658887	-2.250906	0.579638	0.852116	-114.460247	-353.649462	0.000000	
3.383783	1.269887	6.828814	-1.864027	0.672340	0.924093	-127.046459	-284.211713	0.000000	
3.387488	1.227450	5.963523	-1.907905	0.642452	0.957728	-140.389336	-332.290563	0.000000	
2.802670	1.484784	5.620439	-0.399226	0.769699	0.743546	-165.712759	-86.666372	0.000000	
3.694258	1.318809	6.826923	-2.596490	0.639544	0.959447	-124.829219	-391.982721	0.000000	
3.914145	1.454428	7.345090	-3.371155	0.394297	0.960004	-84.369023	-470.890219	0.000000	
3.780166	1.716438	6.655096	-2.422765	0.519674	0.959739	-110.744256	-379.330491	0.000000	
1.606131	1.299339	4.414361	1.063444	1.107556	0.508481	-272.100548	223.577654	0.000000	
3.780205	1.716721	7.693977	-2.982416	0.516265	0.979563	-95.454511	-400.962006	0.000000	
1.961882	1.478709	4.586922	0.719585	1.076163	0.616524	-259.401314	137.976648	0.000000	
3.654745	1.496566	6.310046	-2.682708	0.669311	1.047975	-139.355842	-439.268983	0.000000	
2.181693	1.302170	5.450023	0.547395	1.166005	0.636308	-237.193213	86.220178	0.000000	
2.103907	1.128312	4.239810	0.158027	1.043506	0.757997	-274.750843	21.527472	0.000000	
2.536078	1.441393	5.794198	-0.873799	0.797324	0.653690	-162.953054	-165.576487	0.000000	
2.280641	1.308066	4.412564	-0.444567	0.920093	0.775984	-238.303814	-118.195896	0.000000	
3.911836	1.982438	7.002014	-2.594155	0.579320	0.996778	-114.870015	-387.185428	0.000000	
2.144264	1.346500	5.106140	0.461143	1.074505	0.760746	-234.783482	74.702698	0.000000	
2.049135	1.168702	5.449987	0.547077	1.044804	0.600054	-213.591146	87.536535	0.000000	
3.556382	1.624884	7.174864	-2.207110	0.429158	0.889137	-88.413005	-321.136692	0.000000	
4.886273	1.947699	9.592609	-5.048436	0.296121	1.162062	-60.237601	-538.489160	0.000000	
4.576172	1.592691	7.167907	-3.844422	0.333460	1.013468	-83.129775	-549.618198	0.000000	
2.850294	1.353496	7.005274	-1.432936	0.612573	0.817135	-111.061279	-216.204632	0.000000	
-2.598934	0.551305	-1.275941	8.984076	2.227349	-0.144993	1630.578700	-7017.708052	0.000000	
6.486589	1.876769	10.102327	-7.891240	-0.318634	1.447447	-5.273421	-792.367303	0.000000	
5.950550	2.135508	9.760096	-6.727415	-0.193174	1.322531	-15.203594	-702.366852	0.000000	
0.980788	1.247676	3.551212	2.785882	1.538413	0.328940	-449.491521	763.961638	0.000000	
-6.327603	-0.068892	-4.545708	17.553787	3.621678	-0.773327	717.834489	-3863.281250	0.000000	
-3.354081	0.451077	-0.751985	10.664665	2.414175	-0.232134	2959.354374	-14149.174532	0.000000	
8.611663	2.604688	12.863200	-11.807653	-0.727226	1.828480	18.184381	-930.114905	0.000000	
4.095383	1.720409	6.827598	-3.155240	0.516541	1.102963	-110.097834	-477.081245	0.000000	
4.048084	1.631198	7.345894	-3.284232	0.364492	1.032078	-81.325495	-460.356043	0.000000	
-7.794026	-0.124783	-6.269754	19.792000	4.084091	-1.116202	580.858913	-3158.672409	0.000000	
-5.566306	0.032960	-3.509935	14.495347	3.094108	-0.558808	791.760112	-4130.090341	0.000000	
8.301438	2.161863	11.303574	-11.120752	-0.662634	1.681326	16.627645	-995.370090	0.000000	
-3.798110	0.624471	-1.787190	11.697903	2.872373	-0.304788	1487.172272	-6526.625422	0.000000	
7.767951	2.423278	10.442019	-10.474232	-0.841537	1.554338	38.064096	-1016.918824	0.000000	
-10.668769	-0.862873	-9.370390	25.517475	5.043296	-1.478284	473.545762	-2729.182704	0.000000	
2.320589	1.305637	5.450416	-0.314305	0.889860	0.742744	-187.940937	-71.919791	0.000000	
7.149259	2.281200	10.619404	-9.052637	-0.625259	1.537840	20.317738	-865.327546	0.000000	
-3.667064	0.448160	-1.443379	11.482619	2.629693	-0.340446	1678.563266	-7938.766781	0.000000	
7.543274	2.197760	11.826693	-10.344536	-0.902873	1.485538	39.767543	-885.916453	0.000000	
-14.214853	-1.343483	-13.332663	32.708450	5.857498	-2.056234	378.725822	-2459.723630	0.000000	
8.346602	2.117302	12.861731	-11.809259	-0.757801	1.737951	21.720077	-928.219620	0.000000	
-2.248283	0.817184	0.108103	8.555199	2.194812	-0.087774	-19136.751397	78714.023650	0.000000	
4.533320	2.077036	7.864628	-3.885625	0.332091	1.123263	-75.355320	-509.694413	0.000000	
5.511889	1.781134	8.202963	-6.255999	-0.099976	1.246898	-26.301149	-775.646917	0.000000	
-4.549938	0.349981	-2.475901	13.334137	2.999504	-0.395179	1107.581939	-5378.449932	0.000000	
7.908995	2.423640	10.963219	-10.775635	-0.722833	1.770480	24.667775	-996.106451	0.000000	
-6.723060	-0.068464	-5.062531	17.165280	3.407737	-0.829196	597.829335	-3392.223537	0.000000	
0.639176	1.242534	3.730561	3.130886	1.386605	0.562183	-382.088748	819.752499	0.000000	
1.697046	1.122303	3.720870	1.450660	1.019217	0.542751	-300.296873	372.134557	0.000000	
-0.335643	1.188119	3.390411	4.724295	1.754752	0.437179	-512.795805	1372.953045	0.000000	
6.520421	2.185450	10.447491	-7.674506	-0.317184	1.287741	-5.445705	-747.128659	0.000000	
-0.471563	0.880178	2.349028	4.894782	1.817180	0.273153	-763.111563	2061.910878	0.000000	
4.176035	1.632435	7.863107	-3.542486	0.424089	0.961550	-84.520230	-462.981190	0.000000	
0.591476	0.844976	3.034545	3.431029	1.328523	0.416819	-449.523586	1114.220489	0.000000	
3.071202	1.709740	6.313249	-1.475334	0.583130	0.851936	-120.448651	-249.696519	0.000000	
2.758074	1.484242	5.967004	-0.442252	0.859846	0.744392	-170.822140	-88.885518	0.000000	
2.100006	1.258918	4.932455	0.288391	0.983167	0.724072	-224.001789	43.334516	0.000000	
5.773571	1.955588	9.760453	-6.167797	-0.070092	1.304911	-26.795904	-643.971709	0.000000	
-0.915029	0.964185	1.486586	5.885330	1.942332	0.200375	-1272.822741	3921.751422	0.000000	
5.332025	1.953584	9.243953	-5.824130	0.172822	1.250227	-51.847232	-642.718178	0.000000	
0.100971	0.663315	3.035688	4.162678	1.512520	0.273812	-500.899750	1358.174140	0.000000	
3.200752	1.445188	6.309853	-1.389790	0.614460	0.780085	-126.630222	-233.920812	0.000000	
5.155720	1.685149	9.243901	-5.307683	0.174730	1.232300	-50.983727	-585.223415	0.000000	
-2.109536	0.510489	-0.759080	8.381461	2.104102	-0.018808	2615.193954	-11004.686230	0.000000	
5.559467	1.826362	8.203800	-6.514454	-0.131555	1.318368	-22.774622	-807.381461	0.000000	
-0.031482	0.837845	3.384360	4.421730	1.694339	0.311090	-500.903548	1291.815651	0.000000	
5.237644	1.911388	7.856817	-5.566760	0.145420	1.049967	-56.700216	-722.988892	0.000000	
4.843978	1.947518	8.727679	-4.661188	0.328595	1.178310	-69.578186	-547.402616	0.000000	
-1.666305	0.736267	1.490466	6.659867	2.034810	0.110807	-1303.276667	4439.782355	0.000000	
5.243312	1.908359	9.763588	-6.039161	-0.040460	1.232973	-26.775309	-630.318677	0.000000	
0.370452	0.932112	3.729191	3.215803	1.477612	0.418390	-402.589608	847.495561	0.000000	
5.776238	1.737444	8.893523	-6.427711	-0.130948	1.284287	-22.505336	-734.514916	0.000000	
1.163218	1.247778	4.590704	2.226775	1.323171	0.491983	-303.232924	468.998338	0.000000	
1.827476	1.257011	4.932131	0.632814	1.105694	0.545205	-245.758879	113.191746	0.000000	
2.981350	1.576900	6.139424	-1.303780	0.765511	0.797884	-152.721975	-227.586122	0.000000	
4.619754	1.723794	8.380715	-4.015624	0.422346	1.070247	-82.111481	-491.504044	0.000000	
5.729503	1.824788	9.240064	-6.384071	-0.161265	1.249390	-18.125937	-702.805459	0.000000	
-3.133081	0.587849	-1.099230	10.276562	2.655240	-0.214809	2254.834227	-9319.678231	0.000000	
4.310663	1.767593	7.863381	-4.016181	0.391864	1.015086	-81.379914	-524.170123	0.000000	
0.937682	1.422097	4.765284	2.528981	1.324111	0.403228	-289.694268	513.152105	0.000000	
5.244342	1.775296	9.590049	-5.781276	0.142256	1.250730	-46.304198	-614.040619	0.000000	
5.594105	1.909888	9.068016	-5.608278	-0.006662	1.214122	-34.666423	-631.098343	0.000000	
-5.345746	0.032966	-3.338109	14.625101	3.064771	-0.522316	827.474677	-4381.512711	0.000000	
5.413613	1.865769	8.201912	-5.221559	0.177279	1.087051	-59.435813	-650.203481	0.000000	
-0.250516	1.014290	2.867922	4.550837	1.845858	0.328177	-639.508332	1566.149556	0.000000	
4.221326	1.679046	7.170470	-3.672314	0.484685	0.959942	-101.413703	-526.095406	0.000000	
3.292797	1.757598	6.831393	-2.250776	0.670465	0.888549	-125.977026	-344.724013	0.000000	
-3.706264	0.185497	-2.309479	11.351406	2.871545	-0.306966	1152.542628	-4911.443483	0.000000	
4.668034	1.947847	9.075081	-5.135201	0.235037	1.160524	-55.547615	-578.713066	0.000000	
0.015534	0.928118	2.519377	4.378368	1.604068	0.344891	-637.825866	1716.394751	0.000000	
4.839870	1.592820	9.416933	-4.747593	0.146650	1.071646	-45.197646	-514.458198	0.000000	
0.503752	1.024118	2.516499	3.086058	1.357461	0.397567	-551.443464	1202.682809	0.000000	
0.194846	1.017879	3.212047	3.819072	1.480139	0.435682	-464.999447	1170.390286	0.000000	
4.268772	1.676409	7.691021	-3.456015	0.333666	1.068748	-75.313395	-462.399845	0.000000	
1.519356	1.339192	4.762619	1.667478	1.048920	0.581502	-238.927233	333.527954	0.000000	
5.686148	1.868032	9.241110	-6.125683	0.081590	1.285774	-44.140593	-675.027914	0.000000	
-1.756541	0.424712	0.103597	7.778655	2.101570	0.018592	-19335.520168	74855.151726	0.000000	
3.025161	1.443301	6.138425	-1.002407	0.827489	0.798079	-163.243766	-177.305812	0.000000	
2.893151	1.574590	6.313536	-0.958904	0.827080	0.816555	-157.500056	-166.686922	0.000000	
3.992556	2.026668	7.865323	-2.808751	0.517936	0.873274	-95.119527	-372.376019	0.000000	
6.220845	2.008193	9.065753	-7.374692	-0.255533	1.391829	-11.102076	-826.708789	0.000000	
-3.751673	0.273173	-2.135792	11.351894	2.780604	-0.324467	1202.561944	-5308.712177	0.000000	
3.821184	1.804755	8.039769	-2.938835	0.576939	0.944826	-99.215606	-378.945258	0.000000	
1.124253	0.984188	3.724689	2.139163	1.262740	0.525178	-356.742002	558.681280	0.000000	
6.347862	2.096181	10.276130	-7.632039	-0.257072	1.340927	-10.430918	-754.953976	0.000000	
5.954842	1.961379	9.413442	-7.202445	-0.195141	1.356803	-15.551022	-777.626988	0.000000	
-3.886938	0.183297	-1.789891	11.394989	2.719956	-0.395556	1396.988327	-6361.370825	0.000000	
5.325406	1.863830	8.895360	-5.264103	0.115710	1.106439	-47.385997	-604.349922	0.000000	
3.872118	1.763167	7.001765	-3.155061	0.425332	1.031526	-92.562919	-465.551289	0.000000	
5.905986	1.915184	9.412386	-6.728373	-0.192774	1.267599	-15.512930	-727.071892	0.000000	
5.152292	1.997901	8.551683	-5.652250	0.143847	1.141173	-51.413081	-674.873071	0.000000	
-2.111881	0.465546	-0.240457	8.338631	2.103645	-0.053516	8254.942251	-34570.398160	0.000000	
4.449833	1.548735	7.516459	-4.318636	0.330249	1.121152	-77.941142	-586.930968	0.000000	
4.004718	1.366134	7.344677	-3.328241	0.424770	1.013754	-89.214612	-464.399272	0.000000	
3.605000	1.539934	6.655375	-2.639160	0.609049	0.941317	-122.691902	-410.340987	0.000000	
5.422109	1.823186	8.550111	-5.911155	0.143010	1.248328	-53.095075	-704.131370	0.000000	
-1.269422	0.605211	0.967493	7.004384	2.037824	0.127910	-2033.462438	7203.814858	0.000000	
4.530161	2.033500	8.036493	-4.015068	0.392173	1.051882	-81.214792	-514.614594	0.000000	
3.698057	1.585334	7.695237	-3.414101	0.574228	1.068516	-102.372398	-456.036183	0.000000	
3.198896	1.532013	6.656517	-1.130769	0.736316	0.781427	-138.367104	-183.600350	0.000000	
6.521602	2.052583	10.447073	-7.588794	-0.226119	1.305640	-14.169004	-738.240548	0.000000	
-1.228157	0.692866	2.179113	6.617810	1.914320	0.112519	-847.650149	3018.274917	0.000000	
5.060749	1.638610	9.415795	-4.790603	0.298165	1.107818	-62.610769	-519.360909	0.000000	
4.090346	1.809804	7.865418	-3.800796	0.452693	1.015277	-87.521099	-496.951903	0.000000	
3.910065	1.718180	7.345912	-2.939462	0.517333	0.925131	-101.077425	-414.085675	0.000000	
3.824908	1.716805	7.520748	-2.853262	0.577525	0.997292	-106.114102	-393.006390	0.000000	
-0.958563	0.610285	2.523633	5.324919	1.757496	0.183609	-675.890306	2095.639746	0.000000	
5.375864	2.039579	10.456609	-5.908887	0.050364	1.306796	-34.449961	-576.843231	0.000000	
2.899697	1.355042	5.101671	-0.831046	0.767859	0.885071	-183.189859	-178.612433	0.000000	
4.357576	1.813374	7.344412	-4.188636	0.240247	1.049448	-66.789209	-584.982388	0.000000	
1.122339	1.068482	5.283888	2.399022	1.474139	0.583239	-291.692797	441.867055	0.000000	
4.489229	1.945245	7.517600	-3.929444	0.332215	1.086337	-78.484964	-538.030624	0.000000	
5.507777	1.909575	8.549672	-5.436271	-0.036047	1.230882	-32.716940	-649.190211	0.000000	
1.521206	1.121257	4.588085	1.106123	1.107153	0.562352	-260.700895	226.561141	0.000000	
5.997307	1.960186	9.412878	-6.900507	-0.254092	1.339153	-9.542264	-745.589219	0.000000	
-3.268823	0.585130	-0.406395	10.406466	2.564367	-0.266975	5857.948142	-25526.834063	0.000000	
4.627169	1.859446	8.556204	-5.049479	0.114583	1.194913	-44.522572	-603.160563	0.000000	
5.720343	2.046409	8.719309	-6.039180	-0.037593	1.069810	-33.286234	-706.602802	0.000000	
0.327108	1.019464	3.730482	3.431396	1.599280	0.454668	-434.413313	903.680323	0.000000	
3.914986	1.764303	7.000902	-3.370452	0.333902	0.995415	-79.858154	-496.383920	0.000000	
-1.488736	0.690569	1.836054	7.005028	2.096767	0.183754	-1097.289318	3793.347116	0.000000	
5.375662	1.955146	8.723766	-5.910546	0.052140	1.212979	-41.338787	-690.910034	0.000000	
3.382423	1.626794	6.483780	-2.423704	0.609742	0.887353	-124.098958	-388.700874	0.000000	
3.560037	1.492087	7.694541	-2.508758	0.366613	0.961467	-74.393107	-337.736918	0.000000	
-3.049807	0.586548	-0.408442	10.320595	2.473938	-0.284919	5637.259065	-25188.413328	0.000000	
1.704004	1.122944	4.415481	0.933584	1.197166	0.705315	-293.569848	196.351896	0.000000	
5.599287	1.824315	8.895199	-6.341214	-0.251985	1.266336	-7.778003	-725.200528	0.000000	
1.917117	1.609734	5.973328	0.333054	1.042785	0.655392	-193.368763	39.823513	0.000000	
7.501628	2.329303	11.136236	-9.741627	-0.597586	1.556650	15.077979	-887.317103	0.000000	
-3.577141	0.317938	-1.791006	11.180348	2.568393	-0.341770	1321.198774	-6233.349883	0.000000	
7.372202	2.283050	11.311021	-9.655258	-0.749173	1.610570	28.876503	-865.752987	0.000000	
5.425377	1.954820	8.378926	-5.695327	0.143723	1.337908	-54.270825	-693.623457	0.000000	
3.559878	1.494006	7.694220	-2.853873	0.486141	0.943340	-89.929754	-382.618762	0.000000	
2.102415	1.084270	5.104860	-0.229536	1.101654	0.741749	-239.700333	-57.694443	0.000000	
3.426049	1.493073	6.309652	-1.950207	0.793617	0.887439	-157.031857	-323.173049	0.000000	
3.109167	1.709317	6.138248	-1.001631	0.858184	0.744827	-169.017066	-179.616021	0.000000	
2.229218	1.349188	5.104143	-0.012856	0.952024	0.670631	-211.812545	-18.162751	0.000000	
5.330990	1.864508	8.550603	-5.307618	0.206091	1.213165	-59.871575	-633.777856	0.000000	
-8.177349	-0.524756	-6.438801	19.618127	3.960566	-0.920723	543.063269	-3052.245824	0.000000	
7.413957	2.151281	11.309194	-9.612877	-0.506639	1.556958	7.228412	-861.491484	0.000000	
-3.398304	0.583365	-1.096999	11.009104	2.748502	-0.214170	2330.871968	-10006.630590	0.000000	
2.985469	1.311506	6.658427	-1.562834	0.793914	0.870154	-145.179513	-246.579610	0.000000	
-1.229862	0.958800	0.968149	7.091742	1.978029	0.074748	-1972.615871	7268.675917	0.000000	
2.498777	1.529135	5.797208	-0.830734	0.978196	0.815269	-193.707648	-158.911675	0.000000	
3.205435	1.532545	6.658269	-1.432349	0.613458	0.906405	-119.933986	-228.850749	0.000000	
5.994455	2.092774	9.759237	-6.986188	-0.194123	1.304323	-15.359999	-728.698658	0.000000	
1.476974	1.030123	3.895634	2.010582	1.172124	0.561508	-322.941662	500.462082	0.000000	
-3.178394	0.275866	-1.100841	10.836076	2.688040	-0.250549	2279.019443	-9830.204726	0.000000	
7.813805	2.331231	12.000748	-10.387081	-0.751980	1.665608	25.340827	-877.248471	0.000000	
2.273836	1.481876	5.451155	-0.184561	0.920692	0.707310	-193.090405	-49.922932	0.000000	
6.302190	2.183203	10.449839	-7.502158	-0.377683	1.323523	1.516541	-730.456053	0.000000	
-2.955585	0.811369	-0.925968	9.674341	2.380511	-0.179003	2390.955432	-10399.463699	0.000000	
4.799009	1.903678	8.207787	-4.618330	0.117576	1.123048	-47.918513	-576.502985	0.000000	
-0.917938	0.695588	1.831033	6.617456	2.157227	0.165921	-1150.806188	3591.928095	0.000000	
7.639462	2.111046	10.096151	-9.871996	-0.778642	1.607367	33.879481	-990.342760	0.000000	
-2.473993	0.676813	0.108596	10.278545	2.595331	-0.139741	-22621.461798	94298.750820	0.000000	
4.271996	1.900489	7.692801	-4.231294	0.239220	1.121960	-63.042404	-564.707186	0.000000	
1.252197	1.427801	3.725239	2.054111	1.383827	0.490152	-391.121033	529.085868	0.000000	
0.420316	1.150641	3.905585	3.561615	1.448118	0.598629	-377.607099	894.585439	0.000000	
2.318466	1.218511	4.929609	-0.228954	1.011960	0.669933	-232.457998	-61.126403	0.000000	
-0.608020	0.787752	2.348760	5.713515	1.851012	0.202110	-774.343198	2412.935294	0.000000	
2.943835	1.442949	5.967805	-1.131754	0.705289	0.922756	-146.647293	-204.022531	0.000000	
5.512796	1.912363	9.589511	-6.685545	-0.163819	1.321553	-15.959818	-709.174713	0.000000	
5.772724	2.002374	9.933211	-6.771193	-0.042529	1.268992	-29.113651	-693.795536	0.000000	
-6.282758	-0.061673	-4.720287	16.001990	3.343096	-0.847200	632.771298	-3391.592052	0.000000	
6.653982	2.054718	10.445945	-7.890515	-0.196843	1.305466	-17.684137	-767.215716	0.000000	
0.194345	1.062407	3.385339	3.732912	1.600601	0.436204	-476.812166	1084.248787	0.000000	
7.319742	2.281097	11.136069	-9.008855	-0.685108	1.449596	23.853926	-821.285777	0.000000	
0.858748	1.421012	4.768740	2.528791	1.413783	0.600333	-307.360106	512.752645	0.000000	
4.846125	1.728288	8.207020	-4.920581	0.116223	1.158344	-48.080132	-612.186045	0.000000	
-3.933223	0.485254	-0.574860	12.431367	2.844055	-0.301511	4562.705228	-21578.499978	0.000000	
6.611353	2.055036	10.446555	-8.062915	-0.258306	1.323114	-11.570625	-783.675738	0.000000	
-2.604829	0.502814	-0.411316	9.717192	2.472128	-0.195765	5654.164890	-23556.841012	0.000000	
3.337682	1.626147	6.310803	-2.251383	0.580353	0.869134	-122.424093	-372.021278	0.000000	
-2.506937	0.418082	-0.583412	8.897846	2.407706	-0.035886	3885.048446	-15211.985007	0.000000	
2.314941	1.391455	5.796122	0.203484	0.952672	0.672616	-187.560655	20.824394	0.000000	
1.254704	1.340853	3.378815	1.838112	1.322584	0.506834	-413.057173	520.931740	0.000000	
0.856505	1.244415	5.113125	2.270207	1.200934	0.528741	-245.058980	429.527663	0.000000	
2.409728	1.217468	5.449521	-0.314368	0.829547	0.760523	-177.821965	-71.035150	0.000000	
3.298203	1.361513	5.271695	-1.994315	0.582093	0.902326	-146.309924	-393.610144	0.000000	
2.049722	1.256867	5.277584	0.633518	0.984749	0.617712	-209.169904	105.864322	0.000000	
-1.843772	0.910427	0.800168	7.349565	1.977507	0.092010	-2342.865888	9120.379735	0.000000	
4.222252	1.810498	7.344813	-3.671354	0.212156	0.996089	-61.927226	-514.500324	0.000000	
-1.980681	0.774669	0.626267	8.167738	2.193043	0.002770	-3325.102417	12971.721699	0.000000	
7.415064	2.286534	10.617339	-9.828776	-0.416312	1.555400	-0.762589	-938.625093	0.000000	
3.600552	1.669569	7.174919	-2.164165	0.641129	0.907422	-118.301023	-315.498136	0.000000	
2.987920	1.268814	6.312232	-1.821725	0.671979	0.886794	-133.803259	-300.693489	0.000000	
-0.077519	1.280085	2.521105	4.767241	1.726730	0.292131	-683.972262	1861.631689	0.000000	
7.864217	2.332485	12.002101	-10.731927	-0.753916	1.790705	25.263509	-905.887655	0.000000	
-3.659810	0.094157	-1.789817	11.567740	2.539198	-0.234320	1303.173506	-6460.946146	0.000000	
5.150883	2.081833	8.898933	-4.832587	0.177309	1.178803	-53.188914	-556.991314	0.000000	
5.560429	1.647907	8.376342	-6.299092	-0.221534	1.336544	-11.586084	-763.861139	0.000000	
5.064769	1.773437	8.724745	-5.092330	0.145903	1.159659	-50.081636	-595.882876	0.000000	
-2.205091	0.814789	0.973811	8.771322	2.316041	-0.049514	-2252.062836	8959.453006	0.000000	
7.592916	2.243077	11.655105	-10.431146	-0.631293	1.610840	16.824234	-906.596363	0.000000	
1.294640	1.161417	3.896019	2.183313	1.112410	0.436282	-304.957017	542.856917	0.000000	
2.853615	1.572590	6.315446	-0.700139	0.767165	0.924208	-147.614319	-125.645645	0.000000	
3.290842	1.491160	5.790461	-1.390231	0.766211	0.814975	-164.998134	-255.351757	0.000000	
5.241186	1.732958	8.722761	-5.695890	0.143790	1.141202	-50.985403	-664.951588	0.000000	
-1.885903	0.468522	0.105628	7.692336	2.161079	0.072292	-19458.398277	72575.275651	0.000000	
7.501269	2.287734	10.442781	-9.957892	-0.597761	1.500981	16.150190	-966.671815	0.000000	
-0.649686	0.964295	2.870329	5.369634	1.757874	0.274800	-600.516922	1851.075732	0.000000	
0.984749	1.025294	3.724281	2.871835	1.417390	0.400634	-396.203963	754.851684	0.000000	
2.806521	1.353069	5.447402	-0.572186	0.768858	0.796510	-170.836908	-119.787869	0.000000	
6.351742	2.007552	9.757343	-7.331132	-0.104361	1.411686	-26.616769	-763.702137	0.000000	
-4.643282	0.439829	-3.169190	13.333811	2.939907	-0.540139	844.658423	-4200.349811	0.000000	
6.528848	1.832130	10.447697	-7.805062	-0.167087	1.430566	-19.857357	-757.712668	0.000000	
2.538028	1.308538	5.274485	-0.615851	0.768585	0.670397	-173.503918	-131.493118	0.000000	
1.251625	1.204104	4.070427	2.484909	1.385491	0.491068	-358.420027	593.067975	0.000000	
1.610720	0.988483	3.894532	1.579445	1.170506	0.579022	-324.544168	390.500657	0.000000	
6.526695	2.096772	10.621921	-7.846950	-0.379102	1.413190	0.426913	-750.639248	0.000000	
-1.757983	0.602183	0.450616	7.606586	2.342486	0.019770	-4980.296688	16804.608944	0.000000	
6.882556	1.926285	9.752738	-8.408432	-0.289222	1.428575	-10.728037	-874.056104	0.000000	
3.025462	1.710097	6.313062	-1.475677	0.764641	0.816270	-148.797201	-249.761396	0.000000	
-1.975446	0.641719	0.973320	7.995157	2.221807	0.110745	-2169.619118	8176.509559	0.000000	
2.664586	1.617086	5.447318	-0.269851	0.800800	0.617995	-175.241277	-67.007525	0.000000	
4.362378	1.724392	7.864802	-4.404154	0.238427	1.157826	-62.224972	-573.097652	0.000000	
-8.759621	-0.616029	-7.996276	20.693432	4.238362	-1.192324	467.789787	-2593.019156	0.000000	
8.076171	2.380723	11.132150	-10.732470	-0.661035	1.591901	17.887593	-976.908976	0.000000	
2.233670	1.085501	4.583986	-0.186376	0.891054	0.704593	-222.511931	-54.757491	0.000000	
-1.363910	1.044662	1.835238	7.135575	2.037637	0.076950	-1069.373863	3855.341989	0.000000	
1.345427	1.118198	3.897359	2.010415	1.353153	0.579660	-367.354215	498.929174	0.000000	
6.528385	2.365274	9.930959	-8.234880	-0.319879	1.429543	-5.461654	-843.389283	0.000000	
-8.273823	-0.659431	-7.480072	20.651489	3.996847	-1.119460	471.482698	-2766.626860	0.000000	
6.041353	1.827539	9.758075	-6.986838	-0.224370	1.339752	-12.531666	-727.326875	0.000000	
6.258069	2.052402	9.756325	-7.589373	-0.377397	1.267817	1.904792	-790.508793	0.000000	
1.300016	1.027936	4.416415	2.096909	1.262335	0.562800	-303.131440	460.926729	0.000000	
-3.224389	0.408009	-1.619642	11.180851	2.720255	-0.287069	1567.052686	-6889.964405	0.000000	
7.856302	2.199771	11.825844	-10.430776	-0.691176	1.611305	20.384042	-893.282069	0.000000	
-4.415095	0.087198	-2.997636	13.117586	2.878370	-0.397062	876.785797	-4375.157926	0.000000	
-0.748600	1.005656	3.388107	5.973216	2.032868	0.097775	-588.391309	1745.528032	0.000000	
5.913181	2.045458	10.108458	-6.598441	0.048315	1.484816	-38.389157	-664.930753	0.000000	
3.651096	1.627148	7.175836	-2.724371	0.426578	1.014094	-88.782185	-393.194743	0.000000	
-2.874769	0.363021	0.454884	10.665757	2.475222	-0.264818	-5087.632143	23401.622804	0.000000	
8.344693	2.336805	12.343322	-11.291436	-0.906261	1.719486	34.701599	-926.216110	0.000000	
2.805529	1.796067	5.796040	-1.001653	0.675799	0.815389	-144.542958	-191.016461	0.000000	
-4.147672	0.134300	-1.786440	12.256286	3.115826	-0.287036	1613.095675	-6857.325206	0.000000	
1.432776	1.164220	4.589047	1.278620	1.107668	0.562528	-259.677508	263.577035	0.000000	
3.735896	1.671825	8.040340	-3.025470	0.545921	0.980277	-94.755667	-388.765733	0.000000	
-9.153069	-0.755763	-7.646120	21.641243	4.392067	-1.101300	506.463407	-2836.714786	0.000000	
5.726567	1.911034	9.586499	-5.995662	-0.069006	1.232912	-27.106093	-637.425507	0.000000	
5.640796	2.000009	9.241912	-6.082046	-0.039271	1.267940	-30.784075	-671.048915	0.000000	
0.191703	1.106546	3.038588	3.991337	1.662748	0.382025	-551.538022	1292.304609	0.000000	
3.737389	1.761041	7.002166	-2.853205	0.305537	0.977856	-74.369870	-422.398773	0.000000	
6.617766	2.275942	10.103461	-8.105359	-0.440324	1.465711	6.042955	-815.687904	0.000000	
-5.923448	-0.192729	-4.029125	15.485518	3.128741	-0.685013	693.255342	-3846.891740	0.000000	
-1.092424	0.870772	2.180344	6.531942	2.095329	0.220481	-933.683969	2972.610307	0.000000	
6.528475	2.276737	9.930327	-8.320974	-0.562160	1.411148	18.935683	-851.612411	0.000000	
3.562137	1.715215	7.003632	-2.638170	0.457167	0.995958	-94.600615	-391.239985	0.000000	
4.575317	1.638204	6.648269	-3.844771	0.364271	0.976504	-94.192981	-592.950044	0.000000	
6.210607	2.184877	9.929681	-7.589060	-0.286707	1.214749	-7.007284	-777.438992	0.000000	
1.965516	1.254843	6.145378	0.461741	0.952338	0.726992	-173.701222	62.866519	0.000000	
-4.593989	0.041732	-2.477834	13.031367	2.937792	-0.449787	1080.814485	-5259.044770	0.000000	
4.355440	1.811003	7.344216	-3.628200	0.273067	1.032121	-71.243528	-508.669990	0.000000	
5.606365	1.692147	8.376930	-6.255944	-0.130703	1.390528	-22.735988	-758.953051	0.000000	
0.502270	1.064311	3.209715	3.690155	1.480430	0.435837	-470.801650	1130.265405	0.000000	
2.181741	1.567245	5.798052	0.376021	1.134536	0.673156	-217.575792	48.873771	0.000000	
6.263451	1.786479	9.236926	-7.202733	-0.224361	1.356310	-14.544425	-791.440594	0.000000	
-0.033200	0.837654	3.210754	4.594128	1.725645	0.275052	-537.665035	1415.405116	0.000000	
0.767889	1.158954	3.034751	2.698891	1.476889	0.434762	-501.643547	867.088084	0.000000	
6.526268	2.010456	9.408898	-7.589839	-0.165008	1.356920	-22.168403	-819.467905	0.000000	
2.496504	1.129822	5.448036	-0.185727	1.163179	0.743023	-240.002804	-46.539401	0.000000	
-0.474498	0.789683	2.001678	5.584026	1.851013	0.219169	-912.217534	2766.724176	0.000000	
5.905452	2.090673	9.067314	-6.253984	-0.129978	1.285495	-22.995573	-703.478274	0.000000	
2.055463	1.212790	5.625297	0.374865	1.073541	0.743716	-212.130903	53.729627	0.000000	
-1.097986	0.916954	1.485911	6.402619	1.793504	0.057212	-1166.332960	4273.446870	0.000000	
4.840790	1.992198	8.726910	-4.747162	0.237763	1.106531	-59.155474	-557.589623	0.000000	
1.258216	1.161389	4.937483	1.537278	1.198562	0.617326	-257.833098	297.337965	0.000000	
-2.916554	0.410992	-1.102867	10.578161	2.597029	-0.286349	2205.630485	-9571.416215	0.000000	
6.350464	2.095968	9.584411	-7.201778	-0.043084	1.393687	-33.468766	-764.488322	0.000000	
3.118382	1.491235	6.312001	-2.036304	0.520208	0.868928	-110.923006	-336.676938	0.000000	
-3.044080	0.544644	-0.926831	10.061093	2.654319	-0.196702	2678.794987	-10823.212651	0.000000	
3.431135	1.805235	5.793079	-2.509877	0.579402	0.975466	-134.035693	-451.551758	0.000000	
2.981397	1.487296	6.139035	-1.088311	0.675738	0.797866	-138.108626	-191.683377	0.000000	
-2.990307	0.239315	-1.619700	9.284056	2.409142	-0.092318	1383.025047	-5724.484495	0.000000	
6.791186	2.145751	10.100308	-8.321296	-0.349732	1.393857	-3.887479	-836.598334	0.000000	
5.912441	2.004757	9.068321	-6.943946	-0.193988	1.392105	-15.977741	-778.953544	0.000000	
-0.605739	0.568181	1.655189	5.755302	1.942525	0.200274	-1153.850952	3457.053464	0.000000	
3.911081	1.848818	8.213149	-2.981442	0.485885	0.998971	-86.665619	-376.451495	0.000000	
0.899476	1.068543	4.245556	2.656782	1.385211	0.473286	-338.947818	610.844961	0.000000	
-6.011809	-0.192012	-4.548066	15.656933	3.462571	-0.703692	686.374335	-3445.729227	0.000000	
6.609779	2.229815	11.140164	-7.975529	-0.319066	1.342959	-5.437196	-727.969086	0.000000	
2.539668	1.439169	5.622588	-0.270700	1.041686	0.761631	-211.399080	-63.319611	0.000000	
-0.030421	1.103926	3.039925	4.379047	1.724499	0.346489	-567.509257	1419.323244	0.000000	
4.756038	2.081988	8.036115	-4.919858	0.146402	1.140522	-52.212357	-627.567840	0.000000	
0.102266	1.148593	3.385592	4.078317	1.390447	0.364727	-413.177558	1184.761540	0.000000	
-0.121047	0.837258	3.211471	4.593993	1.755643	0.275023	-545.351428	1415.053926	0.000000	
5.778330	1.736723	9.933175	-6.814893	-0.133812	1.358029	-19.955662	-696.696835	0.000000	
2.317672	1.392238	5.277292	0.203173	0.892446	0.707149	-194.539649	22.884240	0.000000	
4.404488	1.458460	8.728177	-4.533615	0.297948	1.123616	-63.237779	-529.611304	0.000000	
3.427980	1.494881	6.136576	-2.467136	0.428480	0.886124	-101.954490	-416.518860	0.000000	
0.192310	0.972591	3.211315	4.206629	1.693755	0.400397	-531.580749	1292.133509	0.000000	
1.653983	1.078166	4.760119	0.933764	1.136795	0.580566	-259.099815	182.642525	0.000000	
2.626951	1.439617	5.794766	-0.442596	0.829369	0.743789	-169.346965	-91.130726	0.000000	
5.027139	1.864487	7.514958	-5.222517	0.206290	1.246401	-65.771908	-709.683150	0.000000	
3.424841	1.625823	6.656317	-2.250970	0.550075	0.869985	-112.296275	-352.687933	0.000000	
5.191418	1.860353	9.588923	-4.918906	0.207059	1.108429	-52.758007	-524.676455	0.000000	
4.092468	1.677220	7.691943	-3.844129	0.271093	1.032343	-65.883520	-512.807662	0.000000	
4.224575	1.766943	7.518375	-3.801111	0.483448	1.050345	-96.616995	-519.575290	0.000000	
3.694780	1.583034	7.348347	-2.724460	0.517310	1.014567	-99.397222	-383.658402	0.000000	
6.133841	2.051120	10.279207	-7.804814	-0.258907	1.448028	-9.081221	-771.290458	0.000000	
2.667937	1.571256	6.487252	-0.441723	0.889493	0.727812	-160.976509	-82.493664	0.000000	
5.115155	1.687629	8.205818	-5.480916	0.114103	1.247484	-49.668210	-680.282737	0.000000	
4.891494	1.862657	7.515084	-4.920812	0.177313	1.174913	-60.902209	-669.510906	0.000000	
3.954832	1.717200	7.519177	-2.766862	0.548185	0.961607	-103.203573	-381.600718	0.000000	
1.617591	1.078493	3.723593	1.105567	1.016762	0.703519	-298.221275	279.844645	0.000000	
5.639072	2.089159	9.414958	-6.340206	-0.131164	1.232299	-20.462057	-686.681531	0.000000	
1.392173	1.207774	3.551763	1.752286	1.019522	0.614218	-309.826905	473.464251	0.000000	
4.620672	1.679289	8.380579	-4.144508	0.058803	1.069661	-38.739745	-506.592994	0.000000	
3.115994	1.534889	5.965479	-1.605660	0.734286	0.832998	-153.184305	-284.407842	0.000000	
4.397387	1.768549	7.689059	-4.059210	0.301468	0.978766	-72.083356	-541.638482	0.000000	
-4.906043	0.125729	-2.475564	13.764191	3.061394	-0.502759	1124.662176	-5557.985642	0.000000	
7.460375	2.285195	11.310212	-9.914200	-0.538344	1.610604	9.800619	-888.720042	0.000000	
-0.475929	1.098074	2.522824	5.499288	1.729117	0.238567	-675.592009	2154.580481	0.000000	
4.761330	1.817011	7.516469	-4.791715	0.177370	1.210712	-59.927138	-651.871800	0.000000	
3.912727	1.587171	6.999254	-3.155684	0.516589	0.941811	-105.959578	-464.396126	0.000000	
-0.472345	1.097733	3.389633	5.025937	1.604942	0.329597	-466.454200	1463.754392	0.000000	
1.083122	0.982903	4.072303	2.096445	1.171103	0.597490	-303.288254	500.450286	0.000000	
5.732658	2.091760	8.896098	-6.642367	-0.101968	1.320439	-25.481708	-760.666467	0.000000	
1.167167	1.293278	4.418772	1.968041	1.352102	0.563077	-321.598297	428.147247	0.000000	
4.311652	1.721787	8.383050	-4.015638	0.240063	1.051919	-58.282455	-491.355577	0.000000	
2.541175	1.528089	5.796628	-0.528893	0.979740	0.797684	-194.403763	-106.845517	0.000000	
3.697147	1.408979	6.654756	-3.070242	0.395432	0.994270	-91.380278	-474.052938	0.000000	
3.644932	1.803924	7.002086	-2.465541	0.549292	0.906845	-108.441682	-367.383093	0.000000	
3.329267	1.400553	7.692944	-1.776615	0.551648	0.747116	-96.777758	-241.968625	0.000000	
2.936788	1.445132	5.619058	-1.304481	0.675299	0.742577	-150.292552	-247.395938	0.000000	
4.042408	1.675675	7.690815	-3.370179	0.424768	0.925453	-85.509538	-451.246042	0.000000	
2.501821	1.483937	5.278465	-0.486153	0.858941	0.867928	-190.106573	-108.687927	0.000000	
4.090453	1.676729	6.825676	-3.284346	0.274512	0.977099	-74.629419	-495.771108	0.000000	
3.427741	1.447278	7.695333	-2.337138	0.729983	0.961870	-120.640412	-315.073780	0.000000	
-5.391451	-0.097904	-4.205225	14.667083	3.065922	-0.614135	656.351029	-3489.942701	0.000000	
7.943401	2.509057	11.653815	-10.257394	-0.750618	1.629444	25.377864	-893.067680	0.000000	
-1.623725	0.647481	1.142966	7.004242	2.067156	0.074426	-1729.667579	6095.530986	0.000000	
4.438285	1.767908	8.380628	-4.101879	0.391735	0.944664	-77.244740	-502.096685	0.000000	
4.048382	1.805769	7.520668	-2.895599	0.396089	1.086919	-83.657384	-399.303707	0.000000	
0.014366	0.930230	2.172366	4.119391	1.603418	0.290067	-739.256243	1871.430530	0.000000	
3.553672	1.800323	7.695034	-1.991059	0.701912	0.891144	-117.915353	-272.685848	0.000000	
6.885948	1.971185	9.927040	-8.709954	-0.291010	1.500415	-10.392594	-889.351030	0.000000	
-3.174447	0.500180	-1.445255	10.103828	2.473074	-0.198246	1587.140066	-6972.428766	0.000000	
6.611214	1.831034	9.926199	-7.115583	-0.162897	1.322587	-21.746961	-728.011618	0.000000	
2.812965	1.489428	5.449463	-1.520259	0.733922	0.903230	-164.428060	-295.122316	0.000000	
2.803495	1.975911	5.622961	-1.475758	0.795022	0.761159	-170.150528	-282.981593	0.000000	
5.019144	2.126228	8.553779	-4.918907	0.055910	1.159824	-40.246802	-589.816401	0.000000	
-3.669010	0.404910	-1.271253	11.223983	2.598381	-0.394137	1881.228056	-8812.010123	0.000000	
7.016301	2.100865	11.138989	-8.621850	-0.533370	1.539238	11.753681	-785.419595	0.000000	
1.565693	1.428093	4.417207	1.753637	1.109970	0.634742	-271.958610	378.048404	0.000000	
3.563090	1.583364	6.656709	-2.552886	0.639328	0.995218	-126.862852	-397.664561	0.000000	
4.137627	1.632536	7.345608	-3.413774	0.545500	1.068038	-106.654316	-478.019420	0.000000	
1.963589	1.170591	4.758265	0.244925	0.862282	0.597854	-205.159341	36.857418	0.000000	
3.690802	1.669678	8.040730	-2.551399	0.638653	0.980814	-105.969182	-329.773221	0.000000	
4.534241	1.682804	7.169144	-4.275450	0.391751	1.049039	-90.918179	-610.351464	0.000000	
4.046011	1.897836	7.693108	-3.671433	0.483524	1.015130	-93.147959	-491.891078	0.000000	
2.368930	1.351068	4.585702	-0.185521	0.921202	0.812611	-230.658215	-57.800313	0.000000	
4.222039	1.721702	7.690587	-3.714538	0.272188	0.996800	-66.982755	-496.371943	0.000000	
3.161724	1.666057	7.351939	-2.035012	0.579750	0.925501	-103.773891	-290.327223	0.000000	
3.520317	1.404764	6.310260	-2.036426	0.702225	1.012592	-143.371821	-336.020196	0.000000	
2.137031	1.388586	5.970452	0.634398	1.075021	0.655545	-200.927546	92.393876	0.000000	
3.967953	1.587214	6.829035	-3.284975	0.454810	1.174138	-99.988256	-494.884276	0.000000	
3.287838	1.536376	5.962791	-1.691590	0.644032	0.743362	-139.733651	-298.960680	0.000000	
3.112558	1.708811	7.351294	-1.647016	0.642220	0.836410	-111.905428	-237.899685	0.000000	
3.740090	1.541032	6.308836	-2.682217	0.488295	0.994162	-111.448977	-439.670599	0.000000	
3.599222	1.713907	7.521098	-2.336224	0.640152	0.890223	-112.752343	-324.221507	0.000000	
3.118023	1.665839	6.832956	-1.733865	0.702379	0.924668	-129.183833	-268.242154	0.000000	
3.432136	1.228407	5.790055	-2.037198	0.551397	0.957122	-129.278288	-364.561050	0.000000	
4.047217	1.763623	7.000303	-2.982625	0.547589	1.031951	-111.450075	-441.019386	0.000000	
3.606110	1.449726	7.174831	-2.595628	0.457444	0.978127	-92.744640	-373.918397	0.000000	
3.331522	1.886555	7.869935	-1.861404	0.611125	0.855733	-102.192547	-250.783805	0.000000	
3.646439	1.892844	7.176126	-2.723734	0.487347	0.942898	-97.210435	-395.167489	0.000000	
3.692969	1.406546	6.827158	-2.509772	0.488757	0.941588	-102.728002	-379.988287	0.000000	
